 # Hard ZPE restriction,  Energy (cm-1), speed (m/s)
 #Water ZPE (DMC): 4713.0629051, HWW ZPE (DMC): 12528.93462455
 #E_given = DMC ZPE + 3550 =21233.1103893624.
 #Dvib = Evib - ZPE
 #D0 = E_given - Erot(W) - Erot(HWW) - Evib(W) + Evib(HWW) - E_COM,E_COM=0
 
       #Erot(W)     #Erot(HWW)       #Dvib(W)     #Dvib(HWW)             D0         #Speed
          74.59          12.77         757.62         834.30        1870.67         601.06
         257.98         132.36         182.41        1008.08        1969.14         265.76
         334.71         153.21         228.68         424.94        2408.44         582.72
          50.86         101.53         216.62        1654.16        1526.80         444.42
         138.55         120.70        1206.99         357.32        1726.39         447.50
          33.43          30.81         471.97          54.83        2958.92         672.58
         236.70          15.45         330.25         645.51        2322.05         343.74
         324.93          42.79         621.58         456.47        2104.18         451.21
         440.02         567.16         899.57         297.78        1345.42         530.01
         470.41          55.08         388.09         371.21        2265.17         541.30
          31.66          40.67         156.71        1631.23        1689.70         312.81
          98.27          16.27         447.53         828.43        2159.47         718.41
         370.86          66.69          10.98         245.76        2855.67         226.41
         339.51          62.14         678.24         146.88        2323.20         756.72
         323.10          68.97         243.50         650.95        2263.43         472.04
          84.04         136.88         758.75         832.84        1737.47         403.48
         416.73          88.19         193.70         904.27        1947.07         418.05
         207.09          15.02         203.25         654.25        2470.36         288.43
          19.75          26.92         788.53         624.14        2090.60         342.36
         209.73          10.46         161.52        1722.68        1445.57         354.16
         326.25          61.25         266.22         545.73        2350.51         446.76
         457.12          17.76         531.61         615.85        1927.64         508.19
         282.05         116.66        1373.69         381.70        1395.86         436.61
         388.79          88.49         219.02          54.32        2799.36         555.96
          32.23         210.67         402.94         984.70        1919.42         613.32
          98.72          32.33         685.09         766.12        1967.70         260.52
         181.95         197.23         932.77         342.22        1895.77         520.37
         211.22         220.23          35.78         400.89        2681.84         779.19
         166.76         111.86         475.41         407.00        2388.92         436.46
         249.18          86.46         388.49         424.86        2400.97         630.57
           7.94          45.32         895.53         514.95        2086.23         297.36
         209.81         140.10         333.18         109.48        2757.39         289.50
         152.12         403.25         166.06         740.20        2088.31         711.62
         149.25          34.07         328.97        1029.98        2007.70         524.53
         380.26         141.39         237.60         509.74        2280.98         609.77
          20.23          52.19         700.93          19.75        2756.86         556.90
         234.79           0.53         124.05        1927.74        1262.85         297.25
         732.46          48.63        1161.02          77.10        1530.76         504.07
          40.04          28.84         257.02         720.75        2503.31         533.72
         182.12          13.98          61.72        1356.81        1935.34         562.93
         290.81           5.10         265.18         916.65        2072.21         670.32
         235.66         256.24         784.45         345.19        1928.43         423.03
          52.47         235.19         137.26         272.65        2852.37         269.65
          85.10          95.86         264.51         104.16        3000.32         740.26
          86.29          32.73         392.81         894.09        2144.03        1017.89
         287.36         160.95        1195.00          53.57        1853.09         227.00
         105.32         357.12         306.22         537.31        2243.99         540.91
        1017.08          64.21         564.56         277.94        1626.18         315.55
         233.48         151.75         618.02         618.71        1927.99         342.03
         241.50          14.53         393.17        1194.27        1706.48         251.88
          99.75         341.12          84.69          36.08        2988.31         396.52
          22.20         378.11          35.25        1526.57        1587.82         552.94
         393.94         524.35         281.28         401.14        1949.27         676.96
         356.34          37.81         634.36         183.88        2337.58         557.20
         403.61           4.22         379.45        1304.15        1458.53         242.66
         199.57          52.41         110.48         488.83        2698.66        1082.03
         146.06         107.87         313.96        1164.04        1818.03         220.33
          49.30          73.33         621.13         770.72        2035.49         162.82
          98.35          14.80         913.43          55.51        2467.90         495.65
         393.26         205.33         143.21         832.31        1975.84         185.55
         621.06          15.14        1167.17         177.45        1569.13         467.51
         477.38         272.04          38.21        1485.15        1277.18         547.79
          90.32          80.26         433.51         877.96        2067.91         420.66
         171.39          89.37         860.47         641.52        1787.21         398.25
         190.41          98.38         210.02        1543.80        1507.35         411.99
         186.39         144.49         811.86         173.56        2233.68         636.57
         119.67         137.53          37.11        1408.00        1847.67         821.07
         226.23          74.45          42.06         608.42        2598.79         433.64
         145.38          76.27          80.19         701.17        2546.96         638.48
          72.40          29.60         425.75         633.77        2388.44         685.76
          65.56          57.21         158.54        1416.32        1852.34         355.81
         109.40          25.43          57.92         931.57        2425.66         555.55
         153.58         401.99         849.20         622.44        1522.75         221.91
          71.15          23.10         664.16         286.01        2505.53         583.06
         193.95          29.82         733.11         357.30        2235.77         215.61
          74.88          81.23         377.14         433.47        2583.25         198.27
          33.65         185.32         401.02         426.23        2503.76         258.42
         312.69          51.84         167.93         976.59        2040.92         452.59
         185.66          64.14         795.76         961.78        1542.63          90.72
         195.34          29.33         356.66         852.27        2116.36         565.93
          99.32          85.15          48.01        1738.76        1578.72         420.60
         205.98          21.20         365.64         155.45        2801.66         345.24
         813.78         707.27           5.23          70.97        1952.70         527.34
         634.30          10.61         399.75         106.22        2399.09         199.55
         282.54         351.86         840.05          23.21        2052.27         792.01
         280.02         279.24         550.97         571.77        1867.95         396.60
         502.56          87.20         259.37         817.11        1883.71         160.62
         299.55         119.55         199.94         397.52        2533.41         292.93
         134.11          19.46         348.00         308.54        2739.86         663.50
          62.61         137.53         153.49         818.97        2377.35         332.20
         481.62         242.06         512.04         139.81        2174.43         484.99
         379.20         234.05         462.35          81.43        2392.93         893.17
         322.98         203.67         296.89         173.80        2552.63         236.52
         637.78          80.76         321.31         469.97        2040.15         556.37
         255.00         302.95         778.17         250.14        1963.70         312.50
         277.50          43.54         521.25         473.54        2234.12         434.39
         162.24         148.98        1476.86         164.32        1597.56         343.62
         646.53         169.32         111.09         102.60        2520.42         442.29
          78.53         230.55         222.34        1315.49        1703.06         187.30
          62.77         179.74        1506.73         207.31        1593.43         289.18
          52.54          37.18         849.76         560.72        2049.76         288.80
         180.53         251.15         550.44         860.80        1707.02         560.39
         476.56           1.78        1414.58          64.64        1592.40         335.41
         368.98          62.09         430.37         608.09        2080.42         228.53
           5.47          32.23         963.66         606.54        1942.06         325.96
         459.36          52.30          15.05         872.15        2151.09         772.69
         177.09         155.03         368.60         344.03        2505.20         518.61
         437.73          22.39         719.79         441.09        1928.97         656.08
         132.82          78.65         879.72         418.96        2039.80         407.95
         712.13           5.33         154.94         961.50        1716.07         238.08
         721.93         211.39         552.46          67.55        1996.62         785.34
         518.66           7.84         380.84        1081.75        1560.87         201.53
         337.20          85.84          11.69        1145.62        1969.61         388.05
         299.38          20.51         535.99         578.38        2115.72         631.93
         433.83          42.62         929.41         524.34        1619.75         190.80
         416.53           7.57        1175.36         117.87        1832.62         505.86
         592.66           2.29         925.37         222.39        1807.23         376.43
         209.98         162.67         936.44         154.58        2086.30         731.56
         544.54          69.30         633.36          35.55        2267.20         740.74
         103.22         133.50         237.63        1322.05        1753.56         299.01
         385.84          72.45         336.19         341.53        2413.97         261.74
         282.53          10.92        1571.81         361.95        1322.75         277.79
        1188.13          32.24         466.71         175.99        1686.88         386.71
         432.08          89.06         115.25         346.53        2567.04         754.01
         961.88         312.90         313.83          15.27        1946.09         644.82
         295.82         138.03         457.27         427.13        2231.71         394.67
          75.45          72.86        1070.47         408.21        1922.98         432.90
          59.33          15.96        1176.30         568.32        1730.05         512.52
         501.56         250.58         306.37         507.45        1983.99         535.21
         448.75          99.87         979.53         443.41        1578.42         178.97
         112.08         134.84         829.60         979.77        1493.67         296.99
         276.65         112.08         975.49         152.91        2032.85         279.96
         217.07          83.55         329.60         201.21        2718.52         238.12
         405.68          18.24         353.36         858.20        1914.49         380.12
         244.75         205.09         337.98          43.74        2718.40         270.85
         349.27         342.69         160.96         769.49        1927.54         469.26
         151.18         335.96         697.54         660.14        1705.16         350.63
          23.20         126.51          87.74        1350.42        1962.07         561.37
         129.50         244.25        1150.08         272.74        1753.40         573.69
         551.29          18.70         734.14         600.11        1645.73         214.92
         416.56         159.14         485.13         479.87        2009.27         382.57
         653.25          31.09         472.45          76.75        2316.42         669.94
         304.15          90.71          95.79         695.86        2363.42         990.30
         400.65           8.67        1203.27           3.44        1933.95         541.82
         110.89         126.26        1472.82         354.69        1485.30         336.00
         518.82         128.03         341.30         626.02        1935.80         396.01
         257.01         157.91         580.53        1147.83        1406.66         353.75
         179.31          93.64         636.18         786.45        1854.38         348.61
         672.03         168.74         193.51        1114.16        1401.54         355.75
          66.33          86.71         505.44         650.44        2241.05         625.89
         138.01          72.88        1391.17          71.13        1876.76          77.18
         256.29          97.52           6.66        1321.45        1868.04         351.37
         436.48         342.17         230.25         399.40        2141.65         288.07
          15.19          24.85         170.80         457.71        2881.42         327.62
        1149.31          10.63          93.78         700.97        1595.27         414.19
         187.22          96.78         750.73         198.74        2316.50         501.08
         221.75         110.87          12.61         703.06        2501.68         218.38
         197.31         107.72         816.33          17.52        2411.10         706.86
         151.36         157.10         262.95         532.14        2446.42         306.63
         296.54         228.82         214.53         259.22        2550.85         612.45
         632.26          75.29         317.15         198.43        2326.83         611.13
         183.81         107.85        1146.11         277.35        1834.85         199.03
         397.11          38.80         689.15          54.21        2370.70         530.78
         826.27          84.06         616.50         188.16        1834.97         353.11
         629.37           8.41         986.24           1.24        1924.70         549.26
         128.88         155.38        1011.85         200.33        2053.50         758.55
         130.77          54.41           1.47         458.91        2904.38         401.07
         982.23          88.64         246.53         158.72        2073.84         333.67
         399.67         547.74          24.05         299.64        2278.85         592.37
          18.25          28.87         146.71         934.87        2421.28         495.12
         894.66          73.59           3.81         590.76        1987.13         363.65
         317.22          89.41         296.44         864.95        1981.94         187.94
         506.29          28.86         134.42         160.08        2720.31         831.13
         158.25         157.71          50.55         231.35        2952.09         568.38
         452.10          74.53          24.21         119.17        2879.96         337.83
          75.82           4.04           9.95         375.16        3084.99         396.82
         124.56          62.19        1310.88         348.71        1703.63         391.87
          34.16          63.06         424.98         906.92        2120.85         718.07
          39.53         118.58        1166.38         622.69        1602.78         266.49
         155.77          56.35         818.17         521.33        1998.34         284.21
         253.98         187.21          90.36         195.94        2822.46         907.51
         304.69           8.73        1138.04          19.98        2078.53         572.96
         123.69         561.36         415.55         195.22        2254.14         903.21
          36.43          93.73         457.29         318.43        2644.07         539.78
          62.41         171.93        1052.69         281.67        1981.26         784.89
         615.93         257.03          31.83         633.34        2011.83         687.35
         313.23         210.36         675.88         275.20        2075.29         721.23
         369.35           9.68         358.77         101.44        2710.72         490.07
         198.74         149.15         606.34          84.12        2511.59         366.69
         371.31         370.35         283.21         286.54        2238.56         504.00
         184.73         272.08         328.76        1351.04        1413.35         313.67
         320.79         117.98         130.65        1294.52        1686.03         431.04
         216.64          67.46        1183.89         364.78        1717.20         380.61
         164.76         123.73         142.44         170.34        2948.69         633.35
         805.78          30.55         413.59         558.76        1741.26         370.09
         107.73         205.80         376.64         209.82        2649.98         243.02
         107.30         156.46        1157.19         313.68        1815.31         429.38
         321.96         127.29         990.96         399.78        1709.97         797.36
         210.10          79.79         128.83         908.51        2222.73         500.70
         962.84         101.32         394.15         287.96        1803.69         295.40
         188.31         202.60         453.31         848.83        1856.91         307.00
         679.15          45.47         393.88        1311.91        1119.53         175.77
         378.77         134.42         692.65         137.60        2206.54         305.21
          16.15         224.18         844.66         236.84        2228.15         506.31
         532.52          31.44         223.20         798.40        1964.40         549.34
         255.68         129.85          84.49         920.54        2159.41         356.24
         115.28         487.72         469.58         325.20        2152.18         538.53
         190.34         136.50         191.39         441.47        2590.25         983.96
         559.34         155.14         139.62         159.55        2536.32         245.53
         310.65           9.90         141.26        1508.87        1579.28         316.98
         224.54          38.86         867.47         470.42        1948.69         421.64
         576.69          12.42         422.44         540.87        1997.55         173.32
         372.15          87.07           3.39        1330.66        1756.70         473.13
         187.07          50.73          64.98        1395.26        1851.93         725.76
          53.21         103.10         957.79         289.96        2145.91         524.14
         272.94         110.28          35.19        1025.58        2105.98         489.96
           1.25          21.18         927.88          75.38        2524.28         476.92
         669.78          21.91         279.10          65.67        2513.48         382.96
         428.84          10.44         743.30         357.31        2010.06         527.03
         466.41         221.84         171.48        1143.74        1546.48         337.72
         125.82          70.11          20.59         269.88        3063.56         581.12
         305.93         135.20         277.06        1149.09        1682.68         236.34
         146.12         136.66         414.57         406.56        2446.06         673.65
         583.16           8.56         788.96         551.43        1617.85         153.36
          82.35         103.03        1195.42         112.36        2056.79         327.30
         589.37          44.23           5.20        1093.56        1817.61         187.26
          14.44         150.48         498.92        1333.73        1552.40         229.44
          61.63         423.54         373.55         222.06        2469.18         941.04
         128.80         129.37          61.31          89.16        3141.31         503.72
         111.49         190.47         161.32        1243.66        1843.01         704.15
         304.32         167.95         394.15         583.94        2099.60         554.65
         481.14          51.25         183.50        1077.46        1756.60         446.40
          19.78          60.06         231.23         989.08        2249.81         410.55
          77.27         341.34         322.65         411.62        2397.08         659.11
         660.19         188.97         121.40         570.09        2009.31         654.12
          43.39          60.57         804.57         289.21        2352.22         468.78
         153.51         724.34          33.20          84.45        2554.47         692.09
         187.76         248.59         881.00         307.91        1924.71         634.24
         581.25         118.02          11.47         972.88        1866.32         405.61
         102.90          81.90         876.87         378.15        2110.14         120.76
         515.33         159.92         409.09          95.98        2369.64         500.17
          43.86         136.39          67.69         279.63        3022.39         528.12
         722.02         114.36         211.66         426.73        2075.20         409.37
         281.83          15.64        1423.25           8.75        1820.49         462.15
         362.11          98.71         615.54         216.85        2256.74         335.26
         200.91         120.18         729.40         533.36        1966.11         584.91
         201.04          79.31          75.17        1522.43        1672.01         289.64
         452.11         123.57         319.22        1011.99        1643.09         267.49
         242.94         100.92         455.31         797.11        1953.67         106.42
         146.94          42.29        1190.87         256.15        1913.72         676.94
         540.22           2.22        1475.18          55.04        1477.31         327.06
         168.90         136.91        1154.24         361.41        1728.50         392.93
         274.92           7.49          16.64        1461.83        1789.05         450.17
          46.99          46.55        1731.86         171.44        1553.13         356.47
          93.59          12.15          27.63         481.20        2935.40         269.28
          23.82          69.50         357.94         393.26        2705.45         305.45
          94.45          98.70        1595.86         136.43        1624.51         335.45
         201.82         117.94         436.26        1206.69        1587.25         246.18
         105.39         248.51         392.94         337.10        2466.02         467.69
         342.83          88.59         473.67         233.80        2411.06         628.55
         478.94          25.67         292.76         842.78        1909.80         504.19
         413.47          26.70         131.77         436.71        2541.31         468.02
         260.28         219.42        1071.89         563.40        1434.97         180.02
         283.66           2.44         550.58         189.11        2524.17         352.14
         191.72         171.66         963.38         412.12        1811.08         357.29
         168.44         133.74         245.97        1066.34        1935.46         543.51
         142.52          19.78         247.58         301.40        2838.68         639.74
         339.84         137.62          23.91         859.01        2189.58         439.19
          88.96         315.11         530.97         825.24        1789.70         425.57
         402.18         149.46        1219.76         126.31        1652.24         388.49
         111.05         181.11         444.43         918.72        1894.63         142.43
         203.81         264.13         830.12         231.27        2020.61         384.24
         376.82         152.63         177.15         828.90        2014.48         300.15
         359.44         599.31          83.82         143.96        2363.42         466.49
         102.51         348.19         132.73        1189.11        1777.42         395.23
         280.96         521.16         240.57         115.46        2391.83         386.95
         204.85         115.23         269.17         481.60        2479.11         527.19
         623.52          74.29         341.38         254.88        2255.87         623.63
         560.13         117.09         364.78         521.31        1986.64         227.67
         206.14         409.04        1415.22          45.28        1474.29         495.93
          63.63          43.10         406.89         542.69        2493.65         374.48
          91.97          57.58        1059.12         261.90        2079.39         259.01
         344.78          33.83         820.99         875.81        1474.56         128.85
         169.94         160.18         323.05         858.97        2037.83         320.11
          75.26         154.55         473.18        1346.90        1500.07         273.30
         401.21          97.35         163.91         905.89        1981.60         362.49
         173.56          21.79          34.16        1162.48        2157.98         447.00
         131.30           3.90         668.22         586.49        2160.04         456.38
         206.10         123.58         384.61         167.04        2668.63         544.63
          60.74          73.40        1142.56         433.94        1839.33         310.31
         265.93           2.38         233.87         572.46        2475.32         613.78
         294.77          38.64         481.28         461.27        2273.98         816.91
         317.86          72.31          26.42         830.63        2302.75         532.92
         225.02          58.03         467.86         252.19        2546.85         622.89
          14.15          25.61         359.24         319.39        2831.58         291.31
          75.52         102.65         386.88         470.81        2514.11         289.44
          74.25          20.89         523.51        1248.15        1683.15         501.71
          50.39          75.71         244.50        1119.57        2059.78         189.74
         149.70          73.20         206.43         640.65        2479.98         524.95
         148.66         361.74         146.93        1137.33        1755.30         266.88
         333.85         355.73          30.36         350.56        2479.47         555.77
          55.12          69.39         117.20        1468.97        1839.26         448.28
         430.17         183.61         374.62         636.12        1925.44         221.86
         229.59         252.36         830.48         569.88        1667.64         189.68
          62.46          11.43         738.98         439.59        2297.49         166.04
         103.20         287.49         647.35         282.13        2229.79         698.62
          87.84          41.47         960.92         448.60        2011.12         526.30
         730.39          43.77          29.93         747.47        1998.39         291.44
         101.95          26.89         278.95         331.56        2810.62         380.23
         237.50           4.89         671.12         562.79        2073.67         384.91
          48.70         184.56         144.32         865.51        2306.86         341.39
         188.66         527.13         711.96          54.86        2067.36         371.25
         166.74          17.91           0.59        1784.85        1579.86         358.82
         307.42         125.16        1166.94         134.99        1815.47         298.82
         244.06          45.16         494.83        1040.11        1725.82         161.56
         464.26         202.43         486.42         593.50        1803.35         324.17
         273.53          87.22        1046.84          28.31        2114.05         376.44
         198.11          11.64         120.66         769.53        2450.03         251.98
         113.30         119.29         903.43         548.29        1865.66         502.67
         150.16          20.91         514.98        1253.20        1610.72         494.30
         289.14          68.57         915.88         420.66        1855.73         788.80
         352.67          89.59        1146.45          41.07        1920.18         183.68
         295.94         108.24         245.88         844.74        2055.18         413.11
         289.66         399.41         572.32         201.48        2087.08         582.19
         326.42         160.90         126.33        1231.65        1704.66         569.12
          50.87         281.06         482.17          72.09        2663.79         378.26
         135.75          83.81         170.41        1271.27        1888.72         234.97
         371.89          41.86        1420.57         227.17        1488.47         256.18
         601.69          61.53         126.68         232.67        2527.39         630.98
         113.54         471.19        1395.81         231.17        1338.23         418.24
          62.18          37.89          31.03        1200.83        2218.02         604.44
         304.99         167.29         120.52         168.90        2788.25         330.49
          99.33          13.56         796.53         632.28        2008.26         457.25
         277.39         212.40         347.99         889.43        1822.78         588.00
         179.26         177.31          14.57        1408.60        1770.20         429.40
         320.59          97.84         585.68         555.90        1989.94         600.67
         170.31           4.62         766.31         295.96        2312.77         629.53
         539.91         235.39         894.48         122.99        1757.19         217.54
         360.37          32.22         833.71         336.52        1987.15         356.08
          45.42         228.98         695.38         929.03        1651.16         245.19
         142.67          18.80         115.01         324.60        2948.86         415.31
          40.76          39.85         203.43         195.05        3070.87         486.55
         255.21          41.51         591.48         380.06        2281.71         459.00
          90.93          34.01          80.03         427.99        2916.99         425.34
         997.16          15.40         437.58         135.59        1964.23         320.23
         306.95         248.72        1048.01          62.99        1883.30         487.44
         314.20           6.13         592.59         385.03        2252.00         636.86
         343.09          74.99           6.26        1353.93        1771.66         702.29
         133.81          72.58         264.45         722.07        2357.06         510.83
         149.37          98.15         104.53        1692.03        1505.88         173.02
          81.97          33.10         349.42         297.65        2787.83         630.78
         241.75         344.85         443.42        1047.45        1472.49         219.99
           4.79         117.78        1360.91         547.99        1518.47         208.13
         238.10          53.08         118.16         933.17        2207.45         415.22
          29.53         154.66         644.38         903.32        1818.08         430.53
         196.54           2.56         435.56         153.77        2761.52        1001.79
         351.69          16.38         863.24         371.80        1946.86         441.34
         597.18          70.67         121.87         545.70        2214.56         326.96
         783.07          72.29          77.12         449.18        2168.30         555.55
         655.36          22.23         404.74         336.44        2131.17         901.84
         409.15         471.67         325.03         540.72        1803.39         453.37
         572.22         203.47         348.32         363.62        2062.33         466.03
         288.86         137.32         112.76        1350.42        1660.59         282.29
         323.10          97.05         281.27        1057.37        1791.18         392.15
         296.65         108.71          48.10        1043.79        2052.70         790.57
         705.11          56.90         204.61         666.06        1917.28         676.19
          46.37          13.80        1070.05         472.86        1946.87         463.56
         159.18         226.79        1298.90          29.48        1835.60         425.45
         128.30           8.78        1045.06         179.76        2188.07         375.17
         525.75           5.80         765.47         688.29        1564.65         150.77
         271.40          23.18         136.09        1046.85        2072.44         508.51
         123.43          76.52         515.01         959.97        1875.04         520.20
         487.54          83.64         329.42         444.32        2205.04         727.74
         645.94           5.00         243.01         677.87        1978.13         591.21
         144.70          13.70         604.67        1090.14        1696.76         190.82
         316.54         219.21         932.80         150.00        1931.38         627.23
          76.50          47.56        1135.85         552.56        1737.48         360.49
         306.34           6.89         158.39         600.66        2477.68         590.69
         309.78          14.58          27.02        1349.40        1849.21         407.80
          56.16         416.55         611.39         681.36        1784.51         352.53
          85.58          60.69         379.11         617.57        2407.03         324.87
          86.74          39.51         142.90        1671.65        1609.17         448.56
         434.84         109.66         151.03         939.54        1914.91         190.03
         141.24          88.73          28.01         968.31        2323.66         648.79
          31.56          36.02        1269.19         459.67        1753.52         522.46
         242.09         212.55        1113.63         348.90        1632.79         376.22
         535.64           8.86          57.08        1016.41        1931.96         312.18
          97.98         446.87          64.57         871.04        2069.49         784.45
          73.63          46.96         817.44         457.44        2154.50         387.06
         399.84          81.52         484.98          46.01        2537.61         898.54
         172.30          58.40         858.56         404.13        2056.57         341.74
         531.69         144.09         384.58          26.94        2462.67         474.89
         117.37         618.69          73.52        1007.82        1732.57         371.18
          84.67           0.41         317.75        1016.92        2130.20         264.95
         607.20          11.00         259.75          62.14        2609.86         515.63
         255.06          91.58         573.71         161.76        2467.86         661.66
           3.60         291.90         730.01         358.08        2166.36         834.31
         171.07           5.48          94.97        1197.11        2081.35         760.37
         326.23         140.92         303.99          97.11        2681.71         642.72
         236.72         169.92        1352.07          68.99        1722.25         563.54
         506.16          35.52          12.84         373.68        2621.76         359.97
         149.03          24.04         954.49         628.74        1793.65         431.10
         183.10         130.89         102.33         238.44        2895.20         381.42
         135.87         543.34         244.27          41.16        2585.31         865.46
         208.79          41.07          88.83         241.52        2969.75         405.95
         569.84          30.05         584.24          55.81        2310.02         513.22
         208.87          68.81         329.54        1019.53        1923.20         626.52
         145.66         134.67        1478.17         153.44        1638.03         392.78
         467.83         382.12         410.91         703.88        1585.23         333.55
         341.81         196.88         699.25         669.76        1642.25         282.60
         125.26         165.21         371.57         730.22        2157.70         402.92
         279.39          41.30         720.35         562.32        1946.57         329.63
         462.02         182.78         289.24          34.57        2581.35         478.23
         112.65           2.11         703.66         222.11        2509.42         835.99
          96.93         262.41         222.26        1082.31        1886.07         561.37
         491.57          44.31         270.13         736.71        2007.24         612.20
         178.67         232.04         146.49         461.91        2530.87         336.53
         737.53          30.67         459.21         482.97        1839.57         337.31
         107.05         684.15          51.18         380.24        2327.35         745.00
         106.63          20.64         793.55         912.85        1716.30         545.72
          75.95          49.32         434.46         123.46        2866.77         192.53
         325.48          84.31         369.11          10.70        2760.36         473.61
         102.29           0.16         136.30         287.67        3023.55         427.99
         142.52         139.38        1090.86         316.00        1861.20         553.81
         310.39          44.25         332.11         910.01        1953.20         630.63
         257.80          53.44         987.28         579.82        1671.63         292.07
         588.92          68.62         825.72          25.61        2041.10         339.74
          85.90         160.74         613.18         742.14        1948.01         465.61
         499.14          27.20         529.02         496.01        1998.60         435.68
         329.42          56.67         416.35         608.17        2139.34         651.23
         332.02         119.22         194.60         982.67        1921.43         259.43
         235.79         163.49         997.71          65.24        2087.74         316.20
         161.54          26.80        1194.30         357.05        1810.29         212.13
         434.70          40.41         358.96         480.78        2235.11         563.47
         113.23         105.17         866.23         289.83        2175.50         292.29
         103.31         273.12         789.89         656.16        1727.48         157.49
         232.40         138.31         344.77        1016.76        1817.70         227.01
         187.38         159.45         213.10          88.64        2901.39         141.47
         734.27          40.00         346.31         195.11        2234.28         566.87
         191.80           7.43         303.89          71.82        2975.04         349.98
          78.78         341.58         105.65         843.38        2180.56         736.93
         179.27          10.38         197.43         206.10        2956.78         364.43
          41.07          18.64         975.56         923.97        1590.72         389.19
         268.58          22.07         552.93         358.75        2347.61         664.00
          82.28          49.14         935.16         261.64        2221.75         692.83
         655.77         249.52          71.39         347.91        2225.35         159.80
         387.73         264.65          72.26        1151.65        1673.67         284.71
         184.87           8.10         855.34         749.96        1751.68         329.95
         177.78          26.62         126.15        1158.81        2060.59         385.80
         221.57          17.98         148.69         471.69        2690.05         344.67
         278.73          43.51         243.36        1431.35        1553.02         403.92
         396.01           8.55         398.51         526.89        2220.01         280.50
          78.15          57.00         192.19        1403.78        1818.85         477.76
         131.83         224.69         182.58         764.37        2246.48         517.24
         274.90         128.19         785.84          18.97        2342.04         898.34
         247.63         143.62         313.25         737.03        2108.42         265.19
         104.11         202.26         764.70          25.31        2453.59         700.46
         510.11          27.19         334.65         563.63        2114.37         105.61
         128.46         133.71          18.99         465.90        2802.89         224.16
         166.70          46.37          41.26         528.81        2766.80         377.45
         234.56          20.87         321.33         116.53        2856.67        1112.07
         183.90          44.46          80.75        1014.21        2226.65         314.84
         116.74          37.21        1063.92         184.98        2147.10         405.93
          29.81           3.72        1407.24         211.44        1897.77         605.91
         370.17         165.68         751.27         190.17        2072.68         316.50
         595.42          99.56         336.65         245.74        2272.59         375.58
         303.17         158.99         404.16         166.59        2517.05         579.65
         587.36           5.30        1007.06         265.07        1685.17         489.20
         425.44         110.13         106.44        1049.40        1858.53         492.26
         509.62          85.25          10.11         959.88        1985.09         794.62
          97.44         238.25          13.46         529.54        2671.27         778.14
         268.06         160.15         162.59         462.26        2496.90         735.04
         189.38          14.12         783.88         114.23        2448.34         748.98
         260.62         150.19         355.27         378.59        2405.27         724.66
          67.53         345.50          55.57         219.80        2861.54         251.81
         525.71          53.90         435.50         208.33        2326.54         446.32
         369.46           8.57         686.85         479.31        2005.79         160.82
          22.43          98.03         997.97         356.38        2075.15         296.95
         916.64         152.42         473.54         117.69        1889.69         401.64
          47.52          24.08         689.16         653.87        2135.33         555.66
          36.62         166.23         689.41         503.28        2154.40         365.04
         639.86           7.95         623.22         225.38        2053.54         684.01
         686.56          59.24          82.76         629.16        2092.24         452.64
          57.44         253.50         667.48         490.91        2080.63         657.39
         500.63         387.24         497.98         345.73        1818.39         639.85
          84.96          49.45         186.94        1445.62        1782.99         295.64
          28.53          45.38        1008.82         736.46        1730.75         257.58
         453.85          53.15          41.29         702.15        2299.53         215.10
         158.36         402.01         328.28         863.69        1797.61         493.95
         193.79         180.09         293.09         700.56        2182.43         367.85
          93.60         207.07        1227.84          16.52        2004.92         509.68
         653.22          56.49         724.81         269.23        1846.22         353.95
          75.17         213.08         450.06         741.90        2069.75         674.94
         639.47         399.36          27.73         528.40        1954.99         498.25
         118.49         246.02         758.73         296.43        2130.28         476.21
         723.41         117.16          57.46         858.92        1793.01         506.99
         254.76          39.55         186.35        1618.65        1450.62         278.30
          10.64          33.25        1177.37         251.24        2077.46         704.95
         121.73          57.25        1074.76         175.89        2120.33         224.69
         157.53         120.71         247.41         210.63        2813.69         435.15
         724.46         221.05          21.08         695.99        1887.36         279.66
         382.45         187.12         221.30         483.49        2275.61         323.83
          83.61         394.64         830.48          42.63        2198.58         457.15
          79.92         299.42         706.11         310.18        2154.33         712.04
         193.43          62.98         907.58          70.06        2315.90         513.26
         488.03          26.54         207.63         231.40        2596.36         649.33
         343.59         234.51         220.80          45.99        2705.07         235.98
         192.26          64.55         146.61         794.74        2351.80         580.70
          75.36          45.64         837.53         544.30        2047.14         111.26
         376.31         183.92        1187.30          66.74        1735.70         329.15
          74.92         102.30        1129.19          90.00        2153.54         462.54
         415.50          15.09         167.74         101.60        2850.02         223.55
         972.51           6.94         803.02         206.02        1561.47         402.84
         610.50          38.83           0.15         645.06        2255.43         273.07
         409.71         133.24        1135.89         108.61        1762.52         296.26
          99.03          81.18         522.32         477.09        2370.34         394.19
        1019.57         118.66         222.15         525.15        1664.45         454.70
         473.61         174.46        1108.94         191.33        1601.61         122.26
         240.31         150.70         150.51         828.35        2180.07         678.56
          34.44          58.74         459.11          48.93        2948.75         435.46
         437.58          82.99         423.56         530.36        2075.48         250.77
         901.24         158.48         240.42           1.58        2248.24         334.57
         101.04           2.63          87.60         190.89        3167.80         635.97
         387.99         132.32        1076.55         163.59        1789.52         594.20
         214.27          41.27         271.50        1288.70        1734.23         344.49
         443.80         401.83         119.27        1156.33        1428.73         437.18
         518.70         121.74         582.98          60.63        2265.91         510.58
         229.87         475.40         405.31         263.58        2175.81         432.87
         220.56         398.13         422.35          13.67        2495.25         814.36
         206.25          14.17         549.63        1031.85        1748.04         522.79
          16.81         109.09         811.84         796.94        1815.28         424.52
         216.51         458.97         268.59         818.98        1786.92         447.32
         678.08         180.30         208.41          12.21        2470.95         329.50
         140.85          57.69        1090.53         236.04        2024.86         371.34
         480.54         202.78         228.15         430.15        2208.34         471.48
         773.58          77.98          49.61          29.86        2618.92         506.65
          70.76           8.38         829.25         492.88        2148.70         356.05
         337.64         110.42          32.00        1514.86        1555.06         293.88
         294.11          15.92         955.83         313.28        1970.83         490.05
         766.26         167.93         612.31         121.51        1881.93         410.63
          64.22          54.70          70.06         664.24        2696.74         220.92
         613.78          17.43         301.03         893.05        1724.66         378.55
         227.63         140.91        1269.81         200.66        1710.96         341.51
         167.36         210.61          28.61        1358.59        1784.80         262.21
          97.30         293.69         758.63         575.84        1824.48         508.68
         541.08          83.61         376.26         744.76        1804.26         521.38
         194.85          12.71         334.96         804.43        2203.00         436.33
         732.85         326.62         149.63         159.71        2181.14         691.23
         374.63         104.10         414.76         362.99        2293.48         723.12
