 # HCl ZPE restriction,  Energy (cm-1), speed (m/s)
 #Water ZPE (DMC): 4713.0629051, HWW ZPE (DMC): 12528.93462455
 #E_given = DMC ZPE + 3550 =21233.1103893624.
 #Dvib = Evib - ZPE
 #D0 = E_given - Erot(W) - Erot(HWW) - Evib(W) + Evib(HWW) - E_COM,E_COM=0
 
       #Erot(W)     #Erot(HWW)       #Dvib(W)     #Dvib(HWW)             D0         #Speed
          74.59          12.77         757.62         834.30        1870.67         601.06
         950.03         219.62        1117.32        -764.30        2027.28         597.62
         535.73         250.95        1493.51       -1301.64        2571.41         770.13
         257.98         132.36         182.41        1008.08        1969.14         265.76
         283.31          97.04         120.01        -230.87        3280.50         691.26
         159.29         192.33        1592.39        -746.48        2352.43         719.64
         334.71         153.21         228.68         424.94        2408.44         582.72
         189.69           1.17        1922.93        -962.52        2398.68         436.36
          76.66          44.98         798.58        -519.27        3149.00         564.75
         522.75         112.53        4009.37       -2690.08        1595.38         483.66
         638.54          77.33        1278.30       -1527.52        3083.32         479.58
          50.86         101.53         216.62        1654.16        1526.80         444.42
         138.55         120.70        1206.99         357.32        1726.39         447.50
         246.58         109.81        2392.61       -2135.08        2936.05         429.14
         137.93          78.71        2103.20        -941.51        2171.61         471.06
          33.43          30.81         471.97          54.83        2958.92         672.58
          77.61          45.18        1930.41        -369.04        1865.79         699.71
          81.63          11.05         311.56        -210.88        3356.61         702.92
         236.70          15.45         330.25         645.51        2322.05         343.74
         324.93          42.79         621.58         456.47        2104.18         451.21
         917.88           7.36         982.96       -1151.52        2793.27         404.13
         440.02         567.16         899.57         297.78        1345.42         530.01
         255.38         595.28         434.48        -898.60        3163.41         435.07
         470.41          55.08         388.09         371.21        2265.17         541.30
          31.66          40.67         156.71        1631.23        1689.70         312.81
         270.25         114.12        2289.08        -953.26        1829.76         512.14
         279.19          82.40        2305.00       -1881.18        2764.54         676.73
         318.30           1.36        2167.78        -532.57        1595.09         392.91
         297.38          30.43        2167.85        -658.41        1712.73         190.28
          98.27          16.27         447.53         828.43        2159.47         718.41
         126.11         348.74        3092.87       -2720.82        2703.04        1114.45
         526.09         151.13         448.15        -369.11        2793.69         268.27
         370.86          66.69          10.98         245.76        2855.67         226.41
         280.26          62.90        2215.54        -840.22        1831.46         558.87
         316.92         129.11         807.98        -228.53        2524.48         478.53
         339.51          62.14         678.24         146.88        2323.20         756.72
         815.22          20.26          29.77        -446.36        3131.04        1138.41
         323.10          68.97         243.50         650.95        2263.43         472.04
         245.33         415.83         736.32        -213.93        2366.41         454.61
         794.05           8.83        3670.17       -3483.73        2560.65         320.87
         383.95         282.65        1592.03       -1006.35        2297.70         771.76
         293.39         123.60        3932.33       -3319.69        2520.35         434.66
          28.18         204.10        1426.51       -1038.36        2929.52         590.01
          14.65         184.11        2958.68       -2443.82        2836.33         412.66
          84.04         136.88         758.75         832.84        1737.47         403.48
         949.71          30.94        2932.38       -2219.17        1856.10         480.17
         416.73          88.19         193.70         904.27        1947.07         418.05
         207.09          15.02         203.25         654.25        2470.36         288.43
          19.75          26.92         788.53         624.14        2090.60         342.36
         209.73          10.46         161.52        1722.68        1445.57         354.16
         182.42         201.10         902.13        -923.57        3187.87         764.79
         257.90         322.25        1425.65       -1046.96        2591.11         605.75
         129.08          23.51        1818.30       -1166.61        2745.70         348.22
         100.62           9.76        2298.72       -1728.67        2869.53         341.83
         326.25          61.25         266.22         545.73        2350.51         446.76
         509.04         119.39        3506.71       -2699.59        2114.41         318.90
        1203.37         215.30         454.62        -136.71        1813.39         487.51
         176.36           4.55        3143.71       -1693.09        1918.41         454.18
         457.12          17.76         531.61         615.85        1927.64         508.19
         455.57         151.44        4467.67       -4130.93        2606.21         343.23
         877.78          53.74        2235.98       -2214.95        2597.43         209.97
         455.62          40.55        1795.56       -1898.00        3156.21         396.22
         282.05         116.66        1373.69         381.70        1395.86         436.61
         712.09          66.65        2334.27       -1487.22        1924.16         637.22
          55.47         788.50        2264.29       -2996.44        3438.13         903.78
         388.79          88.49         219.02          54.32        2799.36         555.96
         149.42         171.56        1482.60         -47.66        1794.03         558.41
          32.23         210.67         402.94         984.70        1919.42         613.32
         141.76          40.87        2496.33       -2780.75        3651.74        1445.53
          98.72          32.33         685.09         766.12        1967.70         260.52
         181.95         197.23         932.77         342.22        1895.77         520.37
         252.16          76.66        1157.74        -509.70        2573.10         227.20
         530.68          71.15        1155.02        -434.67        2227.77         441.22
         211.22         220.23          35.78         400.89        2681.84         779.19
         166.76         111.86         475.41         407.00        2388.92         436.46
         249.18          86.46         388.49         424.86        2400.97         630.57
         262.32          90.30        1379.45        -646.49        2464.36         433.21
           7.94          45.32         895.53         514.95        2086.23         297.36
         189.68           9.28        2948.79       -1334.58        1736.79         342.33
         209.81         140.10         333.18         109.48        2757.39         289.50
         152.12         403.25         166.06         740.20        2088.31         711.62
         210.96         224.33        2790.04       -1818.65        2143.27         530.84
         149.25          34.07         328.97        1029.98        2007.70         524.53
         208.67          28.75        1425.79        -513.93        2400.69         686.80
         380.26         141.39         237.60         509.74        2280.98         609.77
         261.11          87.21        2112.75       -1370.44        2459.32         346.70
          20.23          52.19         700.93          19.75        2756.86         556.90
         234.79           0.53         124.05        1927.74        1262.85         297.25
         273.16         138.74        1381.38        -820.59        2577.27         598.13
         891.95          20.15         696.82       -1006.82        2947.87         168.15
         732.46          48.63        1161.02          77.10        1530.76         504.07
          40.04          28.84         257.02         720.75        2503.31         533.72
         101.55         103.31        1195.19        -356.60        2506.52         664.88
         182.12          13.98          61.72        1356.81        1935.34         562.93
         411.57         134.77        1926.21       -1575.08        2652.50         236.08
         475.04         909.30         791.33        -515.76        1890.06         915.40
         998.83          75.22        1115.87       -1379.14        2739.17         170.49
         290.81           5.10         265.18         916.65        2072.21         670.32
         761.47          55.69        3028.71       -3268.47        2972.55         362.69
         235.39         267.42         912.73        -764.00        2898.43         448.20
          89.15         654.61        1497.58        -720.86        2029.47         658.25
         235.66         256.24         784.45         345.19        1928.43         423.03
         136.67          63.74        1802.29        -254.36        1801.63         151.73
          52.47         235.19         137.26         272.65        2852.37         269.65
          85.10          95.86         264.51         104.16        3000.32         740.26
          86.29          32.73         392.81         894.09        2144.03        1017.89
         365.01          22.86         905.62        -663.08        2919.56         189.79
          10.82         205.95        2078.10       -1380.31        2635.41         668.76
         491.85          59.15        1051.86        -205.86        2152.97         774.23
         420.43         112.93        2989.16       -3117.57        3145.00         616.71
         287.36         160.95        1195.00          53.57        1853.09         227.00
         473.94          82.63        1965.40       -2240.76        3268.76         805.13
         384.00          68.48        1115.39        -903.96        2886.06         944.17
         105.32         357.12         306.22         537.31        2243.99         540.91
         397.59          95.88         384.48        -555.50        3227.50         847.41
        1030.71         564.64        1463.21       -2620.00        3111.40         621.85
         465.45          45.59        1398.30        -344.74        1985.36         394.27
         615.30         101.44        6280.15       -5595.91        2148.96         336.15
         396.82         112.34        1464.02        -954.66        2531.44         316.39
        1017.08          64.21         564.56         277.94        1626.18         315.55
         233.48         151.75         618.02         618.71        1927.99         342.03
         241.50          14.53         393.17        1194.27        1706.48         251.88
         263.23          51.14        1355.61       -1050.84        2930.83         474.45
         546.57         154.44        1929.96       -1011.44        1930.41         344.33
         446.08         108.72        2092.04       -1286.00        2189.13         719.98
         317.34          58.50        2257.65       -1154.98        2071.43         479.63
         135.24         180.99        2547.64       -1190.30        1876.38         614.78
         418.33         208.25         510.20        -427.90        2841.09         369.89
          99.75         341.12          84.69          36.08        2988.31         396.52
         368.15           3.16        1477.45         -41.99        1743.16         410.16
         133.95         113.26        3672.35       -2593.05        2223.45         565.00
        1053.72         158.54         177.64        -558.28        2718.34         877.58
          22.20         378.11          35.25        1526.57        1587.82         552.94
         514.84         104.25         882.45       -1457.33        3505.76         831.36
         158.59          78.57        2969.84       -1511.86        1854.80         367.44
        1010.40          86.14        3120.37       -3607.19        2940.25         325.27
          68.90          89.33        1500.33       -1315.17        3206.58         560.01
         393.94         524.35         281.28         401.14        1949.27         676.96
         356.34          37.81         634.36         183.88        2337.58         557.20
         403.61           4.22         379.45        1304.15        1458.53         242.66
         336.14         158.30        2335.87       -2095.84        2815.50         232.43
         199.57          52.41         110.48         488.83        2698.66        1082.03
         200.40         126.81        1055.67       -1092.05        3259.14         589.21
         130.78         101.73         945.22        -799.78        3172.01         594.24
         146.06         107.87         313.96        1164.04        1818.03         220.33
         180.23         435.18        1891.54        -809.67        1852.70         637.40
        1181.88          56.10        3495.91       -3207.75        2023.82         429.99
          49.30          73.33         621.13         770.72        2035.49         162.82
         301.94          29.39        1259.44        -542.56        2501.77         495.56
         291.62         190.68          40.61        -101.65        3128.69         557.06
         372.42         473.68         668.64        -334.08        2369.29         583.02
          98.35          14.80         913.43          55.51        2467.90         495.65
         393.26         205.33         143.21         832.31        1975.84         185.55
         621.06          15.14        1167.17         177.45        1569.13         467.51
         260.07          60.97         811.17        -522.98        2940.74         518.03
         477.38         272.04          38.21        1485.15        1277.18         547.79
         200.07          28.71        1986.03       -1156.49        2491.64         266.10
          90.32          80.26         433.51         877.96        2067.91         420.66
         171.39          89.37         860.47         641.52        1787.21         398.25
         190.41          98.38         210.02        1543.80        1507.35         411.99
         139.47         286.49         879.43        -247.77        2492.35         414.48
         186.39         144.49         811.86         173.56        2233.68         636.57
          81.12          67.29        1860.36       -1083.15        2624.34         527.77
         495.90          73.73        2871.87       -1574.12        1682.59         666.35
         242.75          25.96        2247.83       -1170.60        2204.03         443.96
          52.45          55.29        2581.74       -1118.42        1978.90         561.88
         278.51         121.29        1129.41        -969.66        2990.40         525.47
         119.67         137.53          37.11        1408.00        1847.67         821.07
         320.53         493.05        1448.26       -1595.99        2884.12         436.72
         226.23          74.45          42.06         608.42        2598.79         433.64
         293.91           7.05         558.52        -454.06        3144.53         505.05
          17.16          70.05        1511.36        -169.61        2121.00         641.85
         145.38          76.27          80.19         701.17        2546.96         638.48
         601.12          18.51        2199.85       -1060.58        1791.07         108.69
          72.40          29.60         425.75         633.77        2388.44         685.76
         535.02           5.50        1341.56        -437.68        2105.55         717.88
          72.07          72.18        4775.80       -3728.69        2358.61         217.48
         281.24          33.27         852.37        -261.45        2644.54         851.90
        1244.10          23.64        3507.25       -3146.48        1921.45         452.83
         366.99          11.39        2510.96       -2223.47        2884.10         256.19
         480.69          47.86        3097.53       -3147.48        3071.35        1152.58
         318.30          83.65        1613.58       -2109.81        3644.26         658.15
         131.93           4.05        2552.93       -1490.92        2351.98         280.57
         423.45         373.03        1231.22        -766.46        2288.72         679.60
         188.06          21.94        1196.52        -574.44        2717.86         552.97
          65.56          57.21         158.54        1416.32        1852.34         355.81
         212.30         420.68        2395.16       -2322.14        2843.95         457.90
         217.22         121.67        1111.67        -812.48        2911.88         249.04
         382.19         213.25        1314.00        -226.55        1867.07         502.37
         180.61          33.48        1825.64        -551.47        2061.70         284.79
         522.43         294.47         953.39       -1194.04        2973.71         622.76
         109.40          25.43          57.92         931.57        2425.66         555.55
         796.93          61.85        2291.30       -2740.16        3140.05         561.58
         153.58         401.99         849.20         622.44        1522.75         221.91
         758.32          98.24        2288.32       -1843.70        2248.77         473.80
          71.15          23.10         664.16         286.01        2505.53         583.06
         336.83         242.20        1446.48        -959.52        2483.98         523.79
         506.97         183.03         487.38        -617.43        2990.00         390.22
         575.77         214.24         720.40       -1025.39        3064.93         630.71
         252.45           8.95        2600.10       -1581.82        2270.27         309.16
         193.95          29.82         733.11         357.30        2235.77         215.61
         438.74          76.13        2765.69       -2094.14        2363.54         504.63
         423.61          50.18        1789.47        -904.17        2190.88         383.24
          74.88          81.23         377.14         433.47        2583.25         198.27
         261.17         210.76         201.33         -43.47        2920.19         555.13
          43.73           6.04        4113.33       -2467.00        1853.88         521.44
         171.03          78.64        5045.53       -3940.97        2195.72         740.75
          33.65         185.32         401.02         426.23        2503.76         258.42
         357.59         477.40         142.89        -109.80        2681.87         517.01
         491.27          46.91         653.13        -937.14        3295.79         706.61
         233.09         258.87         722.75       -1606.54        3941.81        1061.32
         167.46          30.07         846.70        -396.87        2902.60         589.66
         247.42          61.68         847.39        -111.23        2504.69         578.14
         302.90         123.28        1067.16        -365.83        2422.46         604.11
         160.84          27.32        1602.57        -490.80        2250.03         699.88
         594.33         133.06        2552.91       -2638.69        2908.36         353.03
          87.08          34.36        1997.93       -1537.94        2968.54         289.21
        1051.71         301.76         845.88       -1472.64        2823.23        1089.81
         537.33         115.80         271.50         -52.55        2677.87         626.99
         312.69          51.84         167.93         976.59        2040.92         452.59
         185.66          64.14         795.76         961.78        1542.63          90.72
         703.81         159.01        1033.26       -1336.57        2990.46         360.96
         362.36          24.80        1909.48        -847.14        2100.47         457.40
         186.23         415.22        1854.99       -2312.79        3406.33         843.86
        1168.68         122.66        1739.21       -1241.25        1760.65         602.65
         195.34          29.33         356.66         852.27        2116.36         565.93
         339.86         338.40         607.84         -15.98        2279.85         392.79
          99.32          85.15          48.01        1738.76        1578.72         420.60
          27.55         354.88        1501.89       -1607.29        3272.95         687.42
        1401.15         123.43        1669.52       -1825.64        2181.50         434.57
         205.98          21.20         365.64         155.45        2801.66         345.24
         415.44          26.29        3748.42       -2307.92        1667.73          95.55
         813.78         707.27           5.23          70.97        1952.70         527.34
         634.30          10.61         399.75         106.22        2399.09         199.55
         282.54         351.86         840.05          23.21        2052.27         792.01
          51.56         148.58        4072.07       -3187.17        2464.92         617.03
         395.67         137.08        2053.31       -1125.06        2088.95         399.74
         472.23          14.38        1441.23        -208.02        1830.13         601.57
         280.02         279.24         550.97         571.77        1867.95         396.60
         251.08          93.39        1569.98       -1302.39        2937.90         292.41
         502.56          87.20         259.37         817.11        1883.71         160.62
         299.55         119.55         199.94         397.52        2533.41         292.93
         943.84         210.41         733.35         -77.97        1740.33         488.99
         134.11          19.46         348.00         308.54        2739.86         663.50
          62.61         137.53         153.49         818.97        2377.35         332.20
         481.62         242.06         512.04         139.81        2174.43         484.99
         379.20         234.05         462.35          81.43        2392.93         893.17
         322.98         203.67         296.89         173.80        2552.63         236.52
         637.78          80.76         321.31         469.97        2040.15         556.37
         255.00         302.95         778.17         250.14        1963.70         312.50
         277.50          43.54         521.25         473.54        2234.12         434.39
         565.14         101.89         969.27        -387.80        2301.47         381.84
         551.31         182.82        1115.55        -212.06        1912.34         275.87
         162.24         148.98        1476.86         164.32        1597.56         343.62
         646.53         169.32         111.09         102.60        2520.42         442.29
         337.44         125.04        1207.07        -313.25        2193.66         471.12
         257.14         410.85        1460.40       -1429.99        2851.57         368.06
          78.53         230.55         222.34        1315.49        1703.06         187.30
          62.77         179.74        1506.73         207.31        1593.43         289.18
         530.69         157.47        2322.43       -1728.92        2268.28         880.92
        1092.46         138.86        1742.24       -2435.51        3011.90         561.29
          52.54          37.18         849.76         560.72        2049.76         288.80
         285.19          39.19         631.37        -451.81        3046.02         409.79
         180.53         251.15         550.44         860.80        1707.02         560.39
         293.04           4.16        2852.03       -1684.52        2085.25         493.57
         360.37         127.49        1907.82       -1830.73        2985.01        1103.92
         403.89         265.49         781.81        -352.25        2451.04         690.87
         163.96         380.64        1611.17       -1339.51        2733.69         622.79
         476.56           1.78        1414.58          64.64        1592.40         335.41
         368.98          62.09         430.37         608.09        2080.42         228.53
         153.01         109.94        2954.23       -2034.00        2366.78         769.27
           5.47          32.23         963.66         606.54        1942.06         325.96
         273.85          77.68        1129.77        -566.10        2634.78         433.39
         485.86         313.78        2034.61       -1491.99        2207.71         561.50
         393.59         253.72        2755.62       -2618.24        2765.25         484.25
        1157.13           7.06        1250.45        -666.02        1801.31         601.10
         459.36          52.30          15.05         872.15        2151.09         772.69
         486.59         199.98         262.60        -185.98        2786.75         409.07
         446.49          56.64        1014.76        -646.57        2678.63         379.45
         153.54          84.44        1438.89       -1136.72        3009.83         417.76
         377.27          43.52        3165.27       -2539.41        2503.31         824.74
         810.94         147.14         846.94       -1113.19        2858.13         493.92
         496.03          37.38        1769.87       -1168.95        2415.64         361.94
         377.41         127.02        1700.80       -1051.08        2395.81         811.08
         850.51         121.26        1209.76        -412.59        1781.00         590.45
         231.14          26.88         911.00        -403.37        2784.32         401.04
         177.09         155.03         368.60         344.03        2505.20         518.61
        1294.29         331.45        1087.96        -879.87        1716.14         680.31
         437.73          22.39         719.79         441.09        1928.97         656.08
         478.57         105.80        2562.47       -1326.99        1730.09         278.74
         602.66         189.15         707.19         -76.11        2127.07         527.60
         218.27           3.49        2542.61       -1891.50        2677.10         215.11
         132.82          78.65         879.72         418.96        2039.80         407.95
         797.61         216.70        1747.92       -1666.06        2453.80         751.10
         712.13           5.33         154.94         961.50        1716.07         238.08
         721.93         211.39         552.46          67.55        1996.62         785.34
         518.66           7.84         380.84        1081.75        1560.87         201.53
        1059.63         112.44        1495.99       -2191.34        3073.22         808.05
         355.16         240.08        2402.38       -2357.09        2909.44         456.95
         151.06         617.25        1642.13       -1634.15        2773.67         618.64
         610.03         156.91        1001.59        -396.03        2177.45         305.23
         266.78          63.19         542.58        -521.99        3199.41         741.66
          24.69         110.74        1177.57        -786.35        3023.32         535.75
         180.25          24.41        1939.90        -634.45        2039.84         372.75
         142.78         341.99        3469.48       -3032.96        2628.66         296.67
         497.77          45.71         415.44        -568.33        3159.35         548.39
         337.20          85.84          11.69        1145.62        1969.61         388.05
         301.53         108.29        1151.36        -762.29        2751.07         292.45
         693.82          79.39        2316.25       -1286.68        1747.18         341.73
         299.38          20.51         535.99         578.38        2115.72         631.93
         318.87         136.47        1587.36        -470.76        1978.02         275.70
         257.42         642.84        2280.90       -1595.60        1964.41         334.73
         118.32         144.12         699.24        -387.74        2976.02         332.32
         498.14           2.59        5322.40       -4584.94        2311.77         104.96
         433.83          42.62         929.41         524.34        1619.75         190.80
         275.83           8.88        2089.41       -1904.69        3080.56         611.95
         416.53           7.57        1175.36         117.87        1832.62         505.86
         592.66           2.29         925.37         222.39        1807.23         376.43
         540.44          55.73        3370.81       -2504.20        2087.20         341.06
         209.98         162.67         936.44         154.58        2086.30         731.56
         544.54          69.30         633.36          35.55        2267.20         740.74
        1547.30          93.36         262.09        -759.03        2406.23         125.10
         103.22         133.50         237.63        1322.05        1753.56         299.01
         385.84          72.45         336.19         341.53        2413.97         261.74
          87.40          53.14        1409.85        -689.77        2689.34         746.02
         630.02          71.51        1131.22        -794.29        2511.51         679.69
         282.53          10.92        1571.81         361.95        1322.75         277.79
         336.62           7.98        1969.34        -926.56        2162.57         541.46
          57.43         257.68        1823.85       -1074.00        2485.00         467.94
        1188.13          32.24         466.71         175.99        1686.88         386.71
         432.08          89.06         115.25         346.53        2567.04         754.01
         961.88         312.90         313.83          15.27        1946.09         644.82
         295.82         138.03         457.27         427.13        2231.71         394.67
          75.45          72.86        1070.47         408.21        1922.98         432.90
        1475.80         139.25        2656.75       -2983.76        2261.92         607.16
        1385.65          39.47         101.74         -51.55        2074.65         549.98
          59.33          15.96        1176.30         568.32        1730.05         512.52
         241.80         303.27        1849.01        -605.36        1761.24         302.87
         471.60          11.90         621.23          -2.87        2448.09         343.11
        1411.95          10.88        1020.16       -1966.04        3073.01         390.34
         262.39         213.47        2928.41       -2003.70        2149.37         818.35
          12.06         241.36        1343.24        -903.24        2856.54         319.98
         393.93          27.04        2015.61       -1731.77        2845.14         195.02
         484.29          98.87        2497.38       -1212.79        1682.20         628.75
         501.56         250.58         306.37         507.45        1983.99         535.21
         893.98         500.46        2585.24       -2536.72        2107.00         869.03
         123.01          17.53        2763.34       -1671.77        2317.85         593.50
         150.11          95.05        1766.86       -1152.43        2690.38         631.44
         448.75          99.87         979.53         443.41        1578.42         178.97
          60.37         208.12        2078.94       -2284.84        3487.37         760.26
         850.36         225.25        3173.00       -4280.19        3581.53         895.21
         310.54         727.60        2970.42       -2089.85        1631.23         392.74
         112.08         134.84         829.60         979.77        1493.67         296.99
         581.32         132.70         344.51        -512.96        3004.39         417.54
        1097.04         103.97        3245.45       -2747.79        1851.28         469.53
         276.65         112.08         975.49         152.91        2032.85         279.96
         704.43          38.41         946.61        -217.44        2077.95         335.28
         698.54         200.67        1711.01       -1159.33        2099.07         355.07
         979.87          35.00        3678.07       -3258.25        2115.28         230.90
          75.89         134.50        1332.60        -655.35        2662.32        1096.55
         217.07          83.55         329.60         201.21        2718.52         238.12
         187.84         774.14        1817.54       -1558.38        2328.82         316.65
          90.16         105.57        1965.57       -1128.36        2517.04         199.08
         405.68          18.24         353.36         858.20        1914.49         380.12
         492.61         412.28        1743.36       -1053.75        1955.44         688.15
         449.70           6.81        1300.63        -631.96        2424.78         535.02
         244.75         205.09         337.98          43.74        2718.40         270.85
          57.46          17.18        1299.79        -216.47        2392.01         536.39
         783.26          10.09         144.03        -385.24        2997.84         168.04
          81.99         174.20        3252.90       -3312.45        3353.31         797.81
         821.67         147.08        2104.79       -2321.86        2798.27         788.13
         264.59          37.71         747.59        -248.74        2748.81         208.92
         180.36         229.62         714.00        -108.78        2534.76         570.07
          84.47           7.45         882.85        -489.90        3065.09         445.36
         349.27         342.69         160.96         769.49        1927.54         469.26
         613.80          86.70         529.99        -382.47        2701.92        1003.23
         424.28         105.01        1542.80       -1361.61        2839.50         317.09
         151.18         335.96         697.54         660.14        1705.16         350.63
          23.20         126.51          87.74        1350.42        1962.07         561.37
         388.67         275.30        1240.30       -1607.20        3252.88         644.22
         457.84          68.59        2381.23       -1286.60        1928.90         523.95
         129.50         244.25        1150.08         272.74        1753.40         573.69
        1177.94          10.90        2117.81       -1735.36        1978.67         718.80
         386.29          83.61         799.14        -285.26        2566.17         454.72
         551.29          18.70         734.14         600.11        1645.73         214.92
         416.56         159.14         485.13         479.87        2009.27         382.57
         113.72         194.78        1313.18        -742.17        2670.44         540.62
         860.09          65.64        1713.79        -725.28        1635.71         207.59
         131.93         210.07        1991.73        -445.54        1661.78         472.63
         653.25          31.09         472.45          76.75        2316.42         669.94
         216.62         125.43        2232.06       -1589.76        2565.62         383.63
         472.23         343.93        1109.02       -1201.80        2826.57         618.52
         247.80          61.40        1547.65        -584.20        2277.31         591.43
         304.15          90.71          95.79         695.86        2363.42         990.30
         400.65           8.67        1203.27           3.44        1933.95         541.82
         353.24          83.06         725.38        -182.85        2571.13         414.64
         809.87          14.33         121.78        -153.74        2757.71         343.13
         506.29           2.86         468.83        -355.12        2927.10         319.77
         110.89         126.26        1472.82         354.69        1485.30         336.00
          84.78          77.87        1989.21        -896.60        2294.70         509.24
          93.30          16.43        1578.96        -949.08        2810.34         251.31
         235.33          86.72         435.63        -228.25        3020.51         477.52
         730.79         116.34         731.53        -418.82        2390.12         499.42
         529.09         122.48        1570.79       -1020.16        2347.76         731.17
          64.06         223.74        3506.60       -2132.94        1888.49         701.58
         149.64          31.53        2024.56        -415.37        1759.61         441.47
         518.82         128.03         341.30         626.02        1935.80         396.01
         215.86          47.36        1336.54        -566.61        2516.81         436.34
         506.64          55.85        1477.61        -620.17        2130.01         631.17
         326.59           4.77        3348.44       -2547.02        2417.19         452.59
         257.01         157.91         580.53        1147.83        1406.66         353.75
        1014.31         264.75          65.24        -743.82        2949.49         405.51
         179.31          93.64         636.18         786.45        1854.38         348.61
         672.03         168.74         193.51        1114.16        1401.54         355.75
         784.79          75.31        2010.95       -1260.78        1939.69         460.34
          46.43         475.93        3300.84       -2588.14        2314.92         590.43
         311.39         128.39         117.54         -27.76        3020.39         566.78
         255.15          59.95        3572.34       -1725.86        1388.36         148.33
         512.12           8.33         553.82        -567.14        3042.83         669.44
         936.11         138.76         567.49        -606.74        2514.35         501.03
         977.00          93.84         275.84       -1312.74        3516.01         662.07
         172.28          55.38        2443.28       -1546.53        2425.56         368.38
          66.33          86.71         505.44         650.44        2241.05         625.89
         535.83         163.58        1814.41       -1539.66        2575.80         499.06
         111.41         109.95        2514.42       -1698.60        2512.78         485.32
         138.01          72.88        1391.17          71.13        1876.76          77.18
         150.01          99.16        3999.96       -4433.07        3733.89        1094.92
         256.29          97.52           6.66        1321.45        1868.04         351.37
         436.48         342.17         230.25         399.40        2141.65         288.07
         139.28         160.31        2156.23       -1342.72        2436.85         650.40
         122.56         146.40         650.76        -567.28        3197.53         595.12
          15.19          24.85         170.80         457.71        2881.42         327.62
          49.20          43.60        5999.29       -4739.78        2197.64         566.12
         624.98         224.51        1092.05       -1941.16        3549.59         666.12
         431.49         138.15        1826.94       -1596.36        2749.77         310.55
         151.40          71.31        1648.07        -271.31        1950.49         614.98
        1149.31          10.63          93.78         700.97        1595.27         414.19
        1090.33         121.60        1521.17       -1355.13        2171.98         355.82
         351.66         178.18        2715.06       -2821.57        3126.65         639.09
          75.30         159.26        2500.59       -1736.81        2551.63         305.46
         291.03         441.50        4807.60       -4476.95        2486.81         428.42
         152.55           6.17        1446.02        -592.45        2537.68         343.71
          74.64         263.33        1475.96        -305.68        2041.70         464.10
         726.56         134.99         209.84         -53.90        2532.48         817.05
         277.63         274.27        4328.35       -3353.90        2023.61         765.07
         187.22          96.78         750.73         198.74        2316.50         501.08
         221.75         110.87          12.61         703.06        2501.68         218.38
         197.31         107.72         816.33          17.52        2411.10         706.86
         151.36         157.10         262.95         532.14        2446.42         306.63
          72.54          29.79         541.81        -100.59        3006.44         487.73
         855.50         202.43        1400.46        -712.03        1803.59         567.49
         527.73         133.04        5310.53       -4235.65        1814.31         422.83
          45.94         343.66        1596.82         -39.05        1602.60         284.93
         296.54         228.82         214.53         259.22        2550.85         612.45
         632.26          75.29         317.15         198.43        2326.83         611.13
         183.81         107.85        1146.11         277.35        1834.85         199.03
         121.55         677.01         654.81        -275.32        2371.90         772.82
         397.11          38.80         689.15          54.21        2370.70         530.78
         826.27          84.06         616.50         188.16        1834.97         353.11
         344.10          44.07         565.55        -527.82        3124.07         664.33
         273.88         233.71        1225.72         -78.40        1895.05         723.13
         629.37           8.41         986.24           1.24        1924.70         549.26
         128.88         155.38        1011.85         200.33        2053.50         758.55
         193.21          33.50         709.07        -668.16        3282.34         630.06
         376.83           7.02        3559.63       -1978.19        1584.68         293.97
         539.79         269.76        1872.52        -961.95        1829.84         484.89
         130.77          54.41           1.47         458.91        2904.38         401.07
         982.23          88.64         246.53         158.72        2073.84         333.67
         226.88          28.48         836.89        -471.23        2928.97         218.79
         655.62          73.37        1021.75        -379.82        2179.05         630.50
         726.68         350.70        1213.58        -633.83        1892.82         574.99
         399.67         547.74          24.05         299.64        2278.85         592.37
          18.25          28.87         146.71         934.87        2421.28         495.12
         138.10          14.16        2530.15       -1874.57        2742.12         968.68
         749.56          73.79         528.04        -760.41        2958.99         394.49
         894.66          73.59           3.81         590.76        1987.13         363.65
         317.22          89.41         296.44         864.95        1981.94         187.94
         174.69          13.59        2886.94       -1409.38        1884.12         183.98
         226.90         180.57        1408.83        -213.01        1946.67         276.67
         506.29          28.86         134.42         160.08        2720.31         831.13
         131.71         374.62        2836.40       -2029.93        2237.16         286.68
         375.11         139.62        1612.37        -228.44        1651.31         428.57
         158.25         157.71          50.55         231.35        2952.09         568.38
         452.10          74.53          24.21         119.17        2879.96         337.83
         538.41         129.05         801.26         -51.84        2133.09         496.60
        1095.02           6.03        1090.98       -1525.75        2883.67         121.98
         539.39         140.88         314.95        -784.51        3339.26         705.58
          75.82           4.04           9.95         375.16        3084.99         396.82
         124.56          62.19        1310.88         348.71        1703.63         391.87
         166.71         186.86        2022.91       -1284.26        2457.74         319.30
         563.14          85.28        1055.67         -23.97        1869.83         399.60
         217.16          61.36        2769.91       -2242.13        2743.65         490.43
         528.44          69.73        1324.50        -628.93        2256.23         785.27
          34.16          63.06         424.98         906.92        2120.85         718.07
        1103.60         164.53        4430.58       -4212.68        2063.93         260.30
          39.53         118.58        1166.38         622.69        1602.78         266.49
          29.87         189.81        1752.86        -171.01        1748.43         330.92
         473.05          45.61        1079.69        -225.41        2177.02         561.28
         313.38         181.40        1311.81       -1268.60        3011.99         580.92
         155.77          56.35         818.17         521.33        1998.34         284.21
         527.27         199.03        3043.57       -2056.92        1837.01         740.61
         260.49          58.26        2289.51       -2174.23        3115.92         600.91
         520.46          16.49        1436.44        -970.47        2547.02         404.41
         500.66          13.99         301.77        -440.63        3174.16         582.79
         253.98         187.21          90.36         195.94        2822.46         907.51
         298.69          16.32        1583.72       -1417.83        3069.05         618.94
         316.76         208.38        1713.26        -492.91        1804.47         247.17
         304.69           8.73        1138.04          19.98        2078.53         572.96
         123.69         561.36         415.55         195.22        2254.14         903.21
         976.50         222.75        2582.81       -2392.38        2160.26         364.59
         787.32           1.59        3263.82       -2740.63        2237.85         252.60
          36.43          93.73         457.29         318.43        2644.07         539.78
        1646.82         358.16         128.82       -1292.00        2708.17         891.06
          62.41         171.93        1052.69         281.67        1981.26         784.89
          50.96         514.61         730.04        -787.43        3041.78         519.09
         267.83           4.27          16.84        -332.71        3593.73         671.13
         152.54          41.72        2164.35       -1144.57        2335.90         697.20
         615.93         257.03          31.83         633.34        2011.83         687.35
         171.84         149.33        1588.91       -1254.21        2894.10         270.57
         818.95          32.66        1682.82        -797.45        1812.96         230.83
         406.50          51.70        2208.77       -1387.22        2270.20         254.55
         275.67         135.71        2886.20       -2123.54        2375.90         506.07
         168.91         306.82        2305.16       -2125.34        2894.41         541.28
         862.37         361.99         560.30       -1502.91        3268.21         393.76
         404.70          34.07        4238.37       -3699.71        2572.51        1030.25
         313.23         210.36         675.88         275.20        2075.29         721.23
         553.42          18.72        3569.48       -2884.78        2293.12         228.26
         236.21         480.53        1531.13        -510.61        1812.69         678.06
         345.22         105.44        1326.17        -909.56        2682.69         365.77
         369.35           9.68         358.77         101.44        2710.72         490.07
         198.74         149.15         606.34          84.12        2511.59         366.69
         371.31         370.35         283.21         286.54        2238.56         504.00
         157.22          97.52        2105.44        -858.08        2047.86         385.50
         184.73         272.08         328.76        1351.04        1413.35         313.67
         374.03          17.03         419.52        -162.40        2901.79         449.39
         320.79         117.98         130.65        1294.52        1686.03         431.04
         216.64          67.46        1183.89         364.78        1717.20         380.61
         343.85         317.42        2955.94       -2542.28        2475.02         322.72
         444.95         262.00        1943.24       -1019.88        1919.66         528.46
         164.76         123.73         142.44         170.34        2948.69         633.35
          31.30          27.31        2066.58        -572.54        1997.30         492.52
         514.83          71.34        3192.43       -1914.89        1686.24         294.76
          55.05         206.11         885.01        -459.35        2863.14         311.16
         464.50          31.63         239.01        -138.62        2953.45         825.33
         805.78          30.55         413.59         558.76        1741.26         370.09
         102.12          56.57        3237.70       -2940.66        3094.22         591.11
         181.71         231.76         933.54         -85.75        2288.69         667.52
         107.73         205.80         376.64         209.82        2649.98         243.02
         655.23         188.24         688.09       -1073.66        3092.08         756.92
         107.30         156.46        1157.19         313.68        1815.31         429.38
         321.96         127.29         990.96         399.78        1709.97         797.36
         311.45         279.22        1959.69       -1424.69        2424.31         567.42
         416.87          46.03        2934.76       -1459.60        1611.90         238.86
          71.82         102.48        2178.83        -847.29        2044.13         502.90
         402.83         352.58        1446.69        -583.77        1931.64         507.01
         210.10          79.79         128.83         908.51        2222.73         500.70
         201.84         446.52        1484.00        -789.15        2206.76         537.19
         275.02           2.99         839.56        -327.40        2759.80         473.30
         507.86          23.58        3084.11       -1919.00        1853.42         213.92
         221.38          32.81        1429.10        -764.95        2631.62         631.70
         962.84         101.32         394.15         287.96        1803.69         295.40
         145.54         152.39        2416.94       -1490.78        2325.88         487.76
         407.83         330.63        1950.60       -1604.46        2465.37         269.22
         350.62         100.29        1860.99       -1790.38        3028.44         413.63
          99.88          26.18        2898.30       -1761.25        2286.87         295.97
         188.31         202.60         453.31         848.83        1856.91         307.00
         508.81          17.46         690.61        -566.40        2899.48         371.37
         679.15          45.47         393.88        1311.91        1119.53         175.77
         378.77         134.42         692.65         137.60        2206.54         305.21
          16.15         224.18         844.66         236.84        2228.15         506.31
         129.87         239.31        1669.81        -865.37        2376.34         693.14
         532.52          31.44         223.20         798.40        1964.40         549.34
        1458.47         140.51        1485.63       -2708.94        3174.30         687.18
         535.01          49.87        1094.03        -458.80        2329.86         195.69
         343.47         151.38        2737.45       -2272.20        2589.84         420.90
         954.45         276.45         577.42        -600.48        2342.11         907.46
         254.96          16.27        1753.13        -415.78        1941.38         189.66
          14.35         112.58        2971.29       -1458.69        1910.45         574.41
         255.68         129.85          84.49         920.54        2159.41         356.24
         115.28         487.72         469.58         325.20        2152.18         538.53
         330.64          50.07        1097.52        -900.61        2972.33         324.81
         190.34         136.50         191.39         441.47        2590.25         983.96
         559.34         155.14         139.62         159.55        2536.32         245.53
         310.65           9.90         141.26        1508.87        1579.28         316.98
         224.54          38.86         867.47         470.42        1948.69         421.64
         185.73         752.84        3172.00       -2729.44        2168.84         470.12
         794.71         816.35        1251.58        -860.74        1548.05         318.90
         141.95          92.82        3523.06       -2187.66        1979.82         623.91
         332.13          17.54        2194.03       -1046.25        2052.52         302.20
         576.69          12.42         422.44         540.87        1997.55         173.32
         543.68         104.14        2984.35       -3093.88        3011.68         261.32
         890.18         179.33        1682.74       -1834.21        2631.90         276.42
          96.53          17.73        2589.93       -1083.60        1929.37         196.67
          43.02         228.39        2059.70        -582.88        1801.76         251.26
         797.15         275.63         559.50        -951.70        2869.38         294.51
         372.15          87.07           3.39        1330.66        1756.70         473.13
         572.72          67.29        2849.04       -1932.57        1993.47         407.04
        1416.36         181.07         620.77        -663.98        1995.72         569.17
        1221.47         422.42         424.45       -1329.74        2811.35         576.53
          80.84         221.67        3661.28       -2406.76        1992.93         554.71
         300.34         161.12        1938.06        -629.87        1780.32         366.71
         932.13         177.05        3034.64       -2336.38        1742.53         293.08
        1180.15         158.64         524.45        -415.50        2102.20         270.12
         361.96         369.03        1672.62       -1002.86        2149.22         670.81
         187.07          50.73          64.98        1395.26        1851.93         725.76
          53.21         103.10         957.79         289.96        2145.91         524.14
         524.24          32.33         812.71        -121.32        2302.02         211.81
         608.08          10.57        1153.81       -1101.14        2878.65         397.69
         272.94         110.28          35.19        1025.58        2105.98         489.96
           1.25          21.18         927.88          75.38        2524.28         476.92
         781.73         694.87        1642.84       -1415.07        1845.57         401.22
         795.12          71.94         159.71       -1006.27        3529.45         806.64
          81.28          11.36        3315.11       -1681.82        1824.02         376.14
         669.78          21.91         279.10          65.67        2513.48         382.96
         428.84          10.44         743.30         357.31        2010.06         527.03
          46.23         111.11        3231.25       -3413.59        3574.99         666.81
         466.41         221.84         171.48        1143.74        1546.48         337.72
         482.81         178.11         879.01       -1003.33        3013.37         584.20
         985.59         301.01        2007.73       -2541.01        2796.65         266.58
         308.88         269.68        1744.61       -1648.22        2875.01         381.37
         343.46         245.82        2110.57       -2159.38        3009.48         462.34
          47.70         143.26        1882.39       -1140.00        2616.61         328.59
         623.18          25.60        1403.68        -937.90        2435.38         755.42
         230.18          13.59        4177.79       -2805.19        1933.58         290.19
         125.82          70.11          20.59         269.88        3063.56         581.12
          73.43         129.62        1796.84        -278.33        1828.40         390.17
         124.47          92.65        1998.12       -1148.77        2483.47         229.98
         305.62         279.16         810.37        -784.82        2939.64         392.44
         974.53         166.91        1694.02       -1422.29        2136.78         356.13
         219.95          21.51        1139.56        -173.62        2342.56         973.57
          83.45          23.20        1996.18       -1157.14        2604.26         819.82
         305.93         135.20         277.06        1149.09        1682.68         236.34
         458.14         155.19         804.69        -174.78        2306.72         437.72
         146.12         136.66         414.57         406.56        2446.06         673.65
        1142.70          98.00         936.73        -279.60        1652.13         457.57
         583.16           8.56         788.96         551.43        1617.85         153.36
         256.10         118.33        3932.71       -3654.13        2896.93         566.63
         656.73          26.98        2349.40       -2512.72        3029.60         371.50
         402.94          98.87        1276.97        -317.65        2088.84         495.34
          82.35         103.03        1195.42         112.36        2056.79         327.30
         457.84          81.53        1948.87        -762.87        1824.59         641.39
         589.37          44.23           5.20        1093.56        1817.61         187.26
         376.76          88.13         153.93          -7.45        2938.59         354.28
         771.47         131.07        1882.48       -1943.30        2708.23        1020.93
          14.44         150.48         498.92        1333.73        1552.40         229.44
          61.63         423.54         373.55         222.06        2469.18         941.04
         128.80         129.37          61.31          89.16        3141.31         503.72
         484.30         111.85         901.59        -832.80        2885.03         285.18
         385.54         157.49        2080.18       -1402.53        2329.28         295.14
         111.49         190.47         161.32        1243.66        1843.01         704.15
         304.32         167.95         394.15         583.94        2099.60         554.65
         991.93         172.41        2670.05       -1955.04        1670.61         375.32
         481.14          51.25         183.50        1077.46        1756.60         446.40
          19.78          60.06         231.23         989.08        2249.81         410.55
          57.91         113.02        1982.02        -524.19        1921.21         504.27
         437.61          35.03         804.49        -798.68        3071.53         571.51
          77.27         341.34         322.65         411.62        2397.08         659.11
         566.90         160.82        1135.31       -1313.30        3000.22         632.34
         660.19         188.97         121.40         570.09        2009.31         654.12
         102.92         347.20        1431.54        -392.28        2060.59         402.92
         178.94         142.70        2501.04       -1865.23        2592.51         669.38
         253.32         168.51        3275.38       -1712.69        1565.43         221.67
          91.72          25.44        1345.79        -489.17        2576.18         573.73
         690.28          81.74         238.86        -300.94        2840.02         368.22
         214.96          44.81         954.89        -934.78        3270.09         701.97
          43.39          60.57         804.57         289.21        2352.22         468.78
         414.99          40.13         324.87        -597.08        3367.07         820.89
         571.92           5.40         198.68         -63.07        2837.03         444.24
         153.51         724.34          33.20          84.45        2554.47         692.09
         500.36         246.55        1199.88        -274.30        1877.47         540.27
         921.08         143.86         850.80        -751.86        2386.05         570.46
         187.76         248.59         881.00         307.91        1924.71         634.24
         221.89          76.59        1561.40        -648.50        2338.58         894.90
         608.91         103.75         330.12        -198.06        2705.22         903.03
         198.23         181.91        2355.24       -2428.02        3242.61         723.08
         203.30          77.33         681.60        -335.90        2923.63         300.32
         535.78         345.80        2069.16       -1469.69        2068.91         397.19
         417.12          14.65        4567.07       -3834.87        2386.00         695.19
         111.80         327.96        3103.62       -1769.77        1776.36         210.76
         298.15          21.34        4040.44       -3097.39        2287.44         581.54
         547.53         225.88         290.43         -20.30        2506.41         724.12
         216.67          71.27        2167.92        -564.39        1658.50         304.66
         581.25         118.02          11.47         972.88        1866.32         405.61
         666.52          56.07        1009.39        -125.48        1943.46         812.79
        1468.92          72.24        1110.77       -2199.51        3097.55         692.66
         102.90          81.90         876.87         378.15        2110.14         120.76
         515.33         159.92         409.09          95.98        2369.64         500.17
          68.62         745.72         887.97        -291.15        2138.81         567.97
         535.18          44.92         848.53        -808.54        2929.87         321.51
         417.03         207.89         266.17        -360.26        3019.14         455.45
         493.07          73.94        4641.96       -3930.52        2271.52         159.24
        1358.47         285.29         333.66        -682.73        2255.27         329.40
          43.86         136.39          67.69         279.63        3022.39         528.12
         722.02         114.36         211.66         426.73        2075.20         409.37
         281.83          15.64        1423.25           8.75        1820.49         462.15
         411.26           9.89         558.67        -277.19        2847.33         419.70
         225.15          31.97        1380.69       -1027.14        2939.29         236.70
         362.11          98.71         615.54         216.85        2256.74         335.26
         228.47          13.97        3157.30       -1734.51        1884.73         259.33
         433.47         385.17        1328.92        -341.91        1744.32         445.38
         659.88         183.91         813.26          -0.50        1893.40         499.53
         200.91         120.18         729.40         533.36        1966.11         584.91
         201.04          79.31          75.17        1522.43        1672.01         289.64
         452.11         123.57         319.22        1011.99        1643.09         267.49
         242.94         100.92         455.31         797.11        1953.67         106.42
         154.35          12.90         764.02        -525.79        3144.48         651.80
         146.94          42.29        1190.87         256.15        1913.72         676.94
         540.22           2.22        1475.18          55.04        1477.31         327.06
         530.35          79.67         131.76        -169.73        2977.92         731.60
          95.63         168.58        1573.98       -1100.89        2812.65         318.61
         231.58          27.71        2792.12       -2156.06        2654.61         823.96
         310.66         239.22        1111.60       -1085.47        2973.96         380.85
         328.94          17.52        3559.66       -1884.72        1528.57         494.48
         192.46         180.37        2568.06       -1842.31        2451.38         716.38
         168.90         136.91        1154.24         361.41        1728.50         392.93
         432.00         346.72        1612.23        -917.14        2076.16         300.48
         258.70         110.88         660.35        -586.37        3106.41         662.61
         179.06          55.27        1109.44        -224.31        2430.49         250.88
         182.61         370.56         561.76        -253.60        2688.63         546.37
         209.82         144.02        4414.29       -3248.83        2030.67         708.09
         826.40          68.93         192.25        -336.01        2798.40         595.54
         274.92           7.49          16.64        1461.83        1789.05         450.17
         270.24         155.65        3807.41       -2646.03        1962.71         313.22
         391.01         240.77        2129.75       -1017.74        1806.15         481.00
         661.56         111.75        1445.26        -992.09        2323.48         222.15
        1457.58          81.04        1699.67       -1641.75        1953.41         299.06
        1559.17          36.52        1840.52       -2037.67        2151.41         551.59
         466.67         234.81         702.59        -576.54        2722.44         707.10
         506.12          51.06         516.72          -9.82        2485.88         495.32
         122.92          40.73        2570.41       -1701.42        2517.32         406.59
          46.99          46.55        1731.86         171.44        1553.13         356.47
         830.77          68.05         857.02        -699.34        2493.46         456.41
         301.87          26.13        1299.47        -572.42        2494.92         363.59
          93.59          12.15          27.63         481.20        2935.40         269.28
         125.04           5.78        1625.70       -1161.36        2954.82         394.29
         996.68         280.53         858.19       -1067.11        2481.67         528.38
         369.80          62.80         780.74        -108.30        2444.92         481.15
         187.41         216.10          27.11        -207.90        3327.25         748.67
         107.10         373.54         659.73       -1153.32        3562.90         658.16
          23.82          69.50         357.94         393.26        2705.45         305.45
         287.82          28.63        1982.23        -728.41        1979.70         472.30
          87.06          17.60        1108.91        -766.36        3102.75         551.38
          65.98           5.91        2402.09        -385.32        1461.32         184.56
         220.74         734.27        1204.74        -700.48        2090.68         745.44
          94.45          98.70        1595.86         136.43        1624.51         335.45
         591.67          60.96        3295.27       -2762.18        2364.23         367.00
         396.76         512.30        2280.67       -1749.95        2110.18         497.27
         201.82         117.94         436.26        1206.69        1587.25         246.18
         647.52         145.66        3062.39       -3073.36        2767.75         306.30
         808.01          50.09          75.98        -230.86        2846.74         321.72
         476.61           4.01        1144.95        -639.11        2563.50         129.08
          62.33         112.22         923.27          -9.51        2461.66         653.29
         185.91          65.12        1285.23        -275.19        2288.89         624.52
         105.39         248.51         392.94         337.10        2466.02         467.69
         342.83          88.59         473.67         233.80        2411.06         628.55
         327.83          36.68        1544.06        -471.74        2113.14         759.19
         386.67         241.59        3448.13       -2185.22        1658.80         608.62
         785.63         447.06          26.84        -454.86        2745.29         306.37
         478.94          25.67         292.76         842.78        1909.80         504.19
         413.47          26.70         131.77         436.71        2541.31         468.02
         260.28         219.42        1071.89         563.40        1434.97         180.02
         182.98         225.29        1646.50          -5.73        1500.91         216.05
         283.66           2.44         550.58         189.11        2524.17         352.14
         676.49          25.10        1783.77       -1359.69        2424.28         355.35
         375.97         194.93        4191.65       -3330.71        2118.12         253.79
         939.57         170.00         536.89        -495.37        2398.88         371.91
         466.16         988.00         646.27       -1423.38        2872.93         236.97
         123.63          72.99        2183.03       -1951.72        3122.04        1153.55
         188.27         106.05         895.98       -1003.52        3363.21         811.87
          51.57         238.47        2358.41       -2093.09        2994.58         683.72
         191.72         171.66         963.38         412.12        1811.08         357.29
         646.81         267.96        2274.36       -1386.06        1746.88         507.16
         168.44         133.74         245.97        1066.34        1935.46         543.51
         142.52          19.78         247.58         301.40        2838.68         639.74
          84.08           0.56         919.90         -56.62        2602.04         770.17
         339.84         137.62          23.91         859.01        2189.58         439.19
        1085.58         235.01        1262.93       -1199.15        2165.60         370.64
         361.31          64.45         664.43          -6.70        2466.47         408.48
         394.19          26.37         592.01        -412.47        2949.87         482.76
          88.96         315.11         530.97         825.24        1789.70         425.57
         287.57         504.67        3027.73       -1860.96        1590.94         434.62
         287.17         320.67         955.17         -27.87        2014.83         567.09
         569.20         158.40         515.49         -29.65        2336.51         404.16
         402.18         149.46        1219.76         126.31        1652.24         388.49
         217.68         207.62        2093.84       -1260.61        2291.41         765.59
         143.60         203.83        1443.83        -426.72        2185.43         541.45
         111.05         181.11         444.43         918.72        1894.63         142.43
         203.81         264.13         830.12         231.27        2020.61         384.24
          59.25         120.10        2530.85        -811.18        1650.95         663.37
         471.95         221.63        1927.19       -2058.44        2987.64         484.52
         325.02          32.83        1949.52        -452.32        1694.90         404.36
         128.09         125.36        1908.64        -531.66        1919.52         297.17
         769.93         123.58         546.28        -349.54        2459.71         268.82
          83.48          25.06        1622.26       -1194.98        3014.14         432.41
         241.04          75.68         646.65        -685.35        3271.96         725.40
         328.41         279.95        5052.91       -3964.82        1853.52         512.37
         289.07         125.06         926.69         -44.25        2253.41         669.86
         188.87          51.49        1820.85        -629.37        2118.13         447.15
         727.61          10.84         888.84         -26.26        1948.92         548.99
         393.91         174.99        1442.97       -1354.80        2892.90         324.00
        1124.28         103.19        2678.23       -2276.56        1920.81         306.53
         376.82         152.63         177.15         828.90        2014.48         300.15
         282.31          53.75        1039.98         -69.75        2243.67         331.90
         550.88          46.60        2100.36       -1306.34        2158.45         633.63
         326.95          54.30        2578.76       -2830.81        3420.78         795.93
         333.32         124.76         269.02        -272.90        3095.76        1099.03
         428.84          43.98        5194.24       -3751.52        1634.41          86.10
         356.41         270.81        1232.32        -614.45        2304.88         803.90
         359.44         599.31          83.82         143.96        2363.42         466.49
         323.72          92.63        1596.97        -386.33        1922.98         531.84
         185.24         194.63        3388.55       -2204.67        1986.22         556.02
         102.51         348.19         132.73        1189.11        1777.42         395.23
         280.96         521.16         240.57         115.46        2391.83         386.95
         204.85         115.23         269.17         481.60        2479.11         527.19
         623.52          74.29         341.38         254.88        2255.87         623.63
         560.13         117.09         364.78         521.31        1986.64         227.67
         663.13          85.00        2592.66       -1670.32        1879.50         546.94
         748.10           5.31        3776.97       -3329.78        2349.36         391.54
         337.78          71.62        1606.10       -1139.44        2673.93         302.22
         206.14         409.04        1415.22          45.28        1474.29         495.93
         812.27          47.04         430.25        -180.79        2441.19         614.10
          63.63          43.10         406.89         542.69        2493.65         374.48
         129.69         418.18        4077.08       -2535.66        1460.66         526.61
         769.44          25.47        1067.76       -1128.98        2816.27         629.21
         559.76          40.11        1268.25       -1089.01        2770.84         682.58
         246.24         311.50        1328.50        -420.14        2083.84         242.27
         886.75           3.19        1360.44        -546.63        1846.21         307.53
          91.97          57.58        1059.12         261.90        2079.39         259.01
         530.42          47.61        2346.60        -874.47        1499.78         320.32
         763.75         339.19        2009.08       -1052.62        1490.55         306.41
         344.78          33.83         820.99         875.81        1474.56         128.85
         124.17         138.72        1709.96        -719.59        2296.70         629.09
         131.74         223.23        1184.79        -349.58        2359.77         555.08
         169.94         160.18         323.05         858.97        2037.83         320.11
          75.26         154.55         473.18        1346.90        1500.07         273.30
         401.21          97.35         163.91         905.89        1981.60         362.49
         538.76          29.93        2184.09       -2143.18        2940.37         173.06
         258.34          53.08        2341.95       -1908.18        2804.79         452.24
         844.65         111.12        1087.45        -386.27        1892.99         491.39
         173.56          21.79          34.16        1162.48        2157.98         447.00
         263.84         261.95        1665.53        -842.97        2201.63         396.42
         304.24          96.12         483.05        -630.03        3296.58         668.54
         240.39          28.89         150.28         -59.02        3189.42         582.27
         172.64         154.25         863.00        -414.43        2774.49         418.92
         238.36         104.83        4022.03       -2953.77        2138.51         717.03
         131.30           3.90         668.22         586.49        2160.04         456.38
        1047.85         205.29        1265.88       -1039.95        2070.89         523.49
         530.59          10.67        2120.65        -996.54        1884.58         373.02
         206.10         123.58         384.61         167.04        2668.63         544.63
         160.66          83.70        1770.28        -238.25        1773.57         192.58
          60.74          73.40        1142.56         433.94        1839.33         310.31
         307.88         220.38        1215.29        -612.71        2419.10         606.21
          78.39         108.40         711.96        -643.98        3295.20         705.98
         862.97         140.75        1657.83       -2161.31        3049.70         456.35
         150.18         390.70        2691.41       -2416.77        2734.45         440.94
         836.79          28.76        1355.71       -1401.89        2730.60         756.56
         466.74         203.82        1861.07       -1998.57        3016.91         538.95
         197.68         403.89        1233.97       -1542.53        3256.95         678.23
         750.34         118.94        2394.85       -1499.52        1785.35         388.45
         243.03         141.87        4282.66       -3561.79        2444.21         697.53
         265.93           2.38         233.87         572.46        2475.32         613.78
         837.38         112.11         124.12        -308.33        2784.70         630.54
         294.77          38.64         481.28         461.27        2273.98         816.91
         330.10         149.45        4686.72       -3936.81        2320.51         184.19
         658.69          55.73        1011.83        -947.55        2771.26         640.59
         317.86          72.31          26.42         830.63        2302.75         532.92
         225.02          58.03         467.86         252.19        2546.85         622.89
          75.55          70.73        3383.62       -1935.08        1955.13         218.01
         275.78          51.89        2033.79       -1548.95        2737.43         382.17
         660.59         135.58        1640.61        -723.00        1836.18         499.52
          14.15          25.61         359.24         319.39        2831.58         291.31
          27.05         595.24        1769.44        -731.88        1890.09         558.11
         417.88           4.07        1650.50        -870.33        2347.84         585.77
         341.99          64.07         949.87        -421.49        2615.52         670.04
         269.50         187.83        1187.54        -879.37        2784.47         554.46
         145.56           8.71        2516.33       -1471.62        2350.98         416.87
         144.54          78.69        1751.29        -660.24        2235.68         721.12
         366.35         231.90        2001.91       -2075.38        3025.17         621.35
         525.00         403.64        1581.28       -2006.76        3046.80         626.60
         371.63          88.90        1529.32        -824.67        2384.78         675.93
          91.29         189.16        2390.14       -2234.90        3114.27         684.43
          75.52         102.65         386.88         470.81        2514.11         289.44
          74.25          20.89         523.51        1248.15        1683.15         501.71
        1239.63         115.46        3024.37       -3239.29        2409.80         848.19
         496.47         494.53        1414.56        -646.96        1791.36         625.74
          50.39          75.71         244.50        1119.57        2059.78         189.74
          99.85          24.46        3337.85       -2411.51        2499.31         506.90
         149.70          73.20         206.43         640.65        2479.98         524.95
         668.31         197.74        1158.75       -1788.37        3313.52         760.69
         138.81         224.69         897.15        -573.53        2862.86         589.45
         148.66         361.74         146.93        1137.33        1755.30         266.88
         333.85         355.73          30.36         350.56        2479.47         555.77
         412.59        1087.16        1115.01        -630.86        1566.05         262.05
         334.77          77.69        3795.45       -2756.60        2098.63         503.66
         309.45         172.33        2271.37       -1247.00        2043.81         593.50
         149.77          15.49        1112.26         -85.95        2358.41         340.19
          55.12          69.39         117.20        1468.97        1839.26         448.28
         430.17         183.61         374.62         636.12        1925.44         221.86
         229.59         252.36         830.48         569.88        1667.64         189.68
         131.28         162.14        1243.32        -690.44        2703.65         369.44
         499.46         259.23        1558.53        -743.85        1976.62         423.50
         251.87          92.43         806.82        -692.39        3091.24         581.05
         329.53           3.18        3889.97       -2687.17        2014.44         596.24
          71.89          65.89        1317.76        -657.57        2751.99         817.68
          99.02          34.03        1462.10        -874.22        2829.04         233.94
          62.46          11.43         738.98         439.59        2297.49         166.04
         303.92           2.92        2477.47       -2085.40        2851.06         177.67
          90.40         218.03        2142.40       -1254.48        2353.61         507.79
         690.89          30.89         790.50        -269.71        2307.39         150.67
          67.35         377.68        1144.37       -1013.33        2973.90         790.26
         103.20         287.49         647.35         282.13        2229.79         698.62
          87.84          41.47         960.92         448.60        2011.12         526.30
         217.34          10.00        2118.27       -1381.90        2586.27         551.81
         314.28           9.94        3279.60       -1615.76        1561.92         501.83
         512.20         165.77        3903.29       -3012.16        1980.88         452.44
         272.12         341.47        1256.09        -754.52        2434.80         867.93
         682.61         260.87        1630.62       -1103.37        2079.23         341.18
         652.20          32.96        1253.70        -451.25        2062.34         339.61
          78.88          46.59        2532.58        -694.28        1586.18         284.35
         463.23          36.24        1514.74       -1387.84        2923.60         371.16
         730.39          43.77          29.93         747.47        1998.39         291.44
         560.93         130.02         652.57        -176.97        2383.41         504.66
         400.01          93.63        1268.76       -1263.96        3051.52         513.15
         551.85          77.33        2176.07       -1217.99        1962.71         275.75
         182.45         129.37        1448.39        -415.20        2204.95         476.26
         151.37         435.26        1021.05        -390.05        2332.33         541.56
         101.95          26.89         278.95         331.56        2810.62         380.23
         303.53          42.15        1740.63        -421.24        1884.89         528.47
         237.50           4.89         671.12         562.79        2073.67         384.91
          48.70         184.56         144.32         865.51        2306.86         341.39
         188.66         527.13         711.96          54.86        2067.36         371.25
         144.57         180.47        1566.14        -401.58        2060.37         492.98
         616.66          64.79        2478.82       -1412.18        1801.87         624.36
         288.89         113.42        1527.55       -1043.33        2663.43         960.01
         790.12          63.22        1140.85        -801.37        2357.14         548.85
         198.33          49.40        2198.28       -1705.09        2809.04         347.68
         166.74          17.91           0.59        1784.85        1579.86         358.82
         803.45         451.87        1181.61       -1233.59        2346.63         597.52
         307.42         125.16        1166.94         134.99        1815.47         298.82
         279.66         178.37        1736.53        -688.60        2043.99         424.34
         244.06          45.16         494.83        1040.11        1725.82         161.56
         495.88         377.18        1073.37        -120.92        1724.45         335.97
         156.62          18.10        1589.52       -1047.53        2833.24         414.71
         464.26         202.43         486.42         593.50        1803.35         324.17
         466.26          21.55        3041.26       -1582.52        1603.41         166.66
         442.07         232.08        2439.34       -2790.02        3226.47         555.54
         668.92         114.67        2736.82       -1861.44        1891.02         546.56
         161.49         109.70        1361.29       -1351.53        3269.01         854.96
         273.53          87.22        1046.84          28.31        2114.05         376.44
         486.68         450.17         183.31        -157.25        2587.05         784.87
          58.77         207.47         744.12        -193.33        2732.94         148.82
         198.11          11.64         120.66         769.53        2450.03         251.98
         584.80         109.08        2067.16        -992.11        1781.03         398.37
         549.40         182.52         442.51        -300.39        2675.93         225.53
         396.51          72.53        2863.29       -2120.63        2338.26         446.00
         349.76          65.41         904.41        -589.17        2819.56         521.91
         113.30         119.29         903.43         548.29        1865.66         502.67
         379.45         142.92        2156.19       -1099.01        1970.42         345.49
          43.06          48.96        2213.39        -856.21        2100.77         126.28
        1133.23          97.79         767.79        -200.47        1751.63         125.49
         242.23          82.31        1204.36        -747.99        2769.05         534.34
         521.14         172.41        1633.16       -1424.78        2648.04         473.55
         385.50          22.44        1385.30        -119.91        1876.62         507.69
         150.16          20.91         514.98        1253.20        1610.72         494.30
         289.14          68.57         915.88         420.66        1855.73         788.80
         352.67          89.59        1146.45          41.07        1920.18         183.68
         295.94         108.24         245.88         844.74        2055.18         413.11
         289.66         399.41         572.32         201.48        2087.08         582.19
         326.42         160.90         126.33        1231.65        1704.66         569.12
         157.78          23.26        3720.74       -3321.28        2969.47         768.57
          50.87         281.06         482.17          72.09        2663.79         378.26
         135.75          83.81         170.41        1271.27        1888.72         234.97
         371.89          41.86        1420.57         227.17        1488.47         256.18
         601.69          61.53         126.68         232.67        2527.39         630.98
         151.14         416.71        1931.25       -1665.82        2716.68         315.02
         262.25          82.07        3001.35       -1589.63        1793.91         432.39
         271.26         313.58        2740.72       -1863.81        2088.21         759.32
         113.54         471.19        1395.81         231.17        1338.23         418.24
         362.11         188.46        3221.82       -2775.89        2553.48         651.74
          62.18          37.89          31.03        1200.83        2218.02         604.44
         353.69         294.68        1043.55        -215.38        2073.41         372.31
         304.99         167.29         120.52         168.90        2788.25         330.49
         884.60          62.12        1579.10       -1149.57        2173.69         648.94
         810.78         369.02        1796.81       -2127.24        2700.60         571.86
          99.33          13.56         796.53         632.28        2008.26         457.25
         277.39         212.40         347.99         889.43        1822.78         588.00
         179.26         177.31          14.57        1408.60        1770.20         429.40
         125.47         329.52        1859.69        -596.90        1832.17         450.59
         149.35         645.00        3166.53       -2196.90        1785.96         340.88
         460.14         493.30         958.03        -729.50        2367.99         319.40
         320.59          97.84         585.68         555.90        1989.94         600.67
         615.29         267.74        1475.99       -1816.60        3007.53         493.54
         550.31          19.00        3083.51       -1986.56        1883.71         158.37
         625.70          60.45        3656.03       -4085.55        3293.33         605.60
         170.31           4.62         766.31         295.96        2312.77         629.53
         244.16          52.03        1164.79        -802.53        2891.54         278.21
         539.91         235.39         894.48         122.99        1757.19         217.54
          50.02          42.85        1964.31        -854.34        2347.12         164.17
         360.37          32.22         833.71         336.52        1987.15         356.08
         537.93         377.07        1050.17        -600.28        2185.08         399.15
         359.25          31.47         727.44        -703.04        3134.84         488.23
         223.64          73.60        1515.25       -1318.14        3055.61         525.13
         552.38         609.83        2413.67       -1934.94        1909.01         605.57
         398.05          28.52        3001.64       -1614.68        1736.44         638.15
         124.72          15.66        3381.45       -2119.92        2148.06         328.21
         297.60          74.23        1819.55        -780.92        2139.51         356.14
         316.91         157.24        1317.69       -1384.45        3142.59         537.78
         193.08         402.32         160.09        -278.39        3072.87         890.76
          45.42         228.98         695.38         929.03        1651.16         245.19
         491.03          10.14        1797.19       -1483.84        2735.45         267.42
         124.33         394.95         942.72        -447.36        2535.31         534.88
         203.92         254.22        2435.11        -812.59        1469.30         149.06
         142.67          18.80         115.01         324.60        2948.86         415.31
         466.28         143.63         862.95        -228.30        2305.40         824.01
          40.76          39.85         203.43         195.05        3070.87         486.55
         374.86         504.53        1837.53       -1599.41        2432.45         553.10
         732.70         345.21        2771.88       -2039.65        1739.79         262.86
         777.18          14.46         987.01        -364.17        2135.48         186.44
         234.67          10.47        2320.26       -1019.64        2004.21         121.75
         597.21          79.38        1801.38        -388.10        1460.09         214.98
          93.23          45.20        1094.64        -284.39        2601.28         626.12
         255.21          41.51         591.48         380.06        2281.71         459.00
         194.21          54.66        1563.85       -1007.63        2744.89         180.93
          90.93          34.01          80.03         427.99        2916.99         425.34
         997.16          15.40         437.58         135.59        1964.23         320.23
         230.93          44.30        4456.92       -2921.08        1738.87         364.39
         110.81         167.00        1430.02         -10.60        1852.74         395.51
         306.95         248.72        1048.01          62.99        1883.30         487.44
         393.80         155.05         591.34        -185.92        2595.70         374.19
         426.93         121.02        3073.39       -2131.59        2060.20         665.78
          57.96         182.60        1619.59        -928.79        2618.63         492.11
         424.33          15.42        1935.16        -928.40        2103.47         286.53
         314.20           6.13         592.59         385.03        2252.00         636.86
          96.31         280.02        1230.52        -776.83        2719.94         748.77
         343.09          74.99           6.26        1353.93        1771.66         702.29
         143.11         214.59        2645.26       -3291.37        3838.38        1129.30
         288.00         174.02        1893.49       -2489.45        3683.90         703.75
         177.98         404.55        1870.31        -770.93        1868.05         287.50
         287.88          49.75         725.48         -61.30        2548.15         545.07
         207.08          13.76        3049.08       -1777.72        2057.75         229.81
         306.04         169.15        1822.39       -1264.79        2517.18         413.65
         242.63           3.21        2483.33        -821.42        1642.22         399.00
         133.81          72.58         264.45         722.07        2357.06         510.83
         377.87         283.99        2928.42       -3046.00        3005.67         761.80
         241.82          21.29        1336.64        -503.27        2453.48          45.74
         149.37          98.15         104.53        1692.03        1505.88         173.02
         605.31         236.96        1552.41       -2351.69        3506.97         865.13
          81.97          33.10         349.42         297.65        2787.83         630.78
         270.85          31.90        1608.90        -994.00        2632.32         239.87
          99.11         512.85        1225.90        -283.77        1995.88         339.98
         568.54          87.70        1197.64        -352.16        2048.23         225.32
         241.75         344.85         443.42        1047.45        1472.49         219.99
         304.36         116.00        2460.55       -1235.88        1904.94         898.99
         542.34          33.11         245.13        -697.90        3427.29         696.29
         459.53         290.83        1363.44       -1764.42        3200.57         749.54
           4.79         117.78        1360.91         547.99        1518.47         208.13
         444.63          33.86        1650.06       -1501.37        2922.78         376.26
        1854.19          98.62          64.60        -497.16        2029.73         732.05
         567.18         162.59        1297.68       -1128.94        2651.45         738.55
         800.34         168.59        1541.72        -416.11        1455.42         416.80
         466.14         280.88        2513.46       -1690.82        1980.30         205.18
        1166.46          53.89         117.88        -150.59        2362.33         388.53
         430.23         175.10        1926.18       -1006.30        2024.75         260.21
         238.10          53.08         118.16         933.17        2207.45         415.22
         839.36         204.00         993.70        -656.46        2169.36         260.65
          29.53         154.66         644.38         903.32        1818.08         430.53
         196.54           2.56         435.56         153.77        2761.52        1001.79
          61.11          97.91        2759.60       -1508.30        2139.65         648.18
          41.25         116.88        3803.50       -2783.60        2371.93         242.68
         309.93         171.57         460.78        -642.50        3250.19         671.11
          23.38         108.74        3012.87       -1912.06        2317.04         235.20
         351.69          16.38         863.24         371.80        1946.86         441.34
          80.72           9.80        3420.74       -2336.23        2374.92         774.77
         597.18          70.67         121.87         545.70        2214.56         326.96
         724.66         302.62        1355.50       -1372.67        2539.86         465.16
         783.07          72.29          77.12         449.18        2168.30         555.55
         199.02         164.78         640.79        -889.14        3434.51        1162.46
         262.47         244.67        2824.04       -2608.32        2827.12         422.95
         113.92         185.19         926.12        -516.01        2840.75         552.79
         327.48         236.41        3263.50       -2200.77        1923.35         604.77
         693.34          19.47        2650.52       -1918.18        2104.79         337.56
         157.44         358.57        1731.28        -874.57        2177.23         556.87
         274.05          53.38        2551.64       -1956.06        2626.95         816.52
         119.49          64.14         884.26        -494.91        2976.96         463.54
         655.36          22.23         404.74         336.44        2131.17         901.84
         532.99         458.59        1816.05       -1049.17        1791.50         367.07
         409.15         471.67         325.03         540.72        1803.39         453.37
         298.72          19.16        1892.09        -719.94        2059.96         434.20
         572.22         203.47         348.32         363.62        2062.33         466.03
         143.08         297.66         448.80       -1645.26        4305.67        1048.29
         450.07         345.88        1468.33       -1828.15        3113.84         538.52
        1105.72          45.56        1287.57       -1076.21        2187.29         745.83
         214.58         521.33        3725.30       -3526.05        2614.80         750.54
         202.53          72.15        2022.64       -1752.66        3005.31         903.66
         288.86         137.32         112.76        1350.42        1660.59         282.29
         283.37          83.53        1707.81        -485.66        1960.91         477.84
         222.26         190.71        2065.36       -1289.29        2360.91         414.25
         929.81          90.16        3069.07       -3012.52        2473.44         572.22
         323.10          97.05         281.27        1057.37        1791.18         392.15
          28.67          61.85        2074.74        -506.66        1891.35         523.69
         296.65         108.71          48.10        1043.79        2052.70         790.57
         407.62         439.89         668.88        -413.95        2447.50         665.80
         555.98         364.65        1873.04        -871.06        1627.34         489.59
         705.11          56.90         204.61         666.06        1917.28         676.19
         617.61          39.70        2578.00       -1299.34        1614.01         463.19
         825.36         226.82         682.07        -338.62        2154.31         798.43
          46.37          13.80        1070.05         472.86        1946.87         463.56
         586.47         134.37        1126.52        -422.02        2124.61         172.72
         159.18         226.79        1298.90          29.48        1835.60         425.45
          95.27          14.89         939.16        -265.09        2765.71         653.25
         702.58         161.77         156.50        -153.14        2682.26         899.66
         378.11          16.08        4584.49       -3211.53        1782.81         374.72
         279.54         115.51        3071.95       -3044.63        3127.59         584.00
         444.71         400.62        1168.66       -1765.12        3301.08         966.29
         128.30           8.78        1045.06         179.76        2188.07         375.17
         449.89         349.93        2283.60       -2040.38        2506.92         435.65
        1007.70         221.13        1530.62       -2196.37        2986.87         404.52
         525.75           5.80         765.47         688.29        1564.65         150.77
         271.40          23.18         136.09        1046.85        2072.44         508.51
         123.43          76.52         515.01         959.97        1875.04         520.20
         487.54          83.64         329.42         444.32        2205.04         727.74
         511.72         448.61         929.01         -50.43        1711.04         338.13
         645.94           5.00         243.01         677.87        1978.13         591.21
         711.53         418.73         287.31        -331.24        2463.63         545.44
         170.72         125.44        1252.55         -17.19        2018.44         854.67
         144.70          13.70         604.67        1090.14        1696.76         190.82
          15.81          84.17        1632.36        -292.27        2109.87         445.37
        1400.44          95.05        1331.80       -1713.71        2436.37         333.22
         316.54         219.21         932.80         150.00        1931.38         627.23
         739.65           9.64        1329.86        -332.25        1803.04         793.70
         588.55          53.01        1900.98       -1192.86        2200.28         635.67
          76.50          47.56        1135.85         552.56        1737.48         360.49
         414.11          30.37        1515.30       -1177.82        2767.98          90.41
         306.34           6.89         158.39         600.66        2477.68         590.69
         309.78          14.58          27.02        1349.40        1849.21         407.80
           3.09           5.38        4268.12       -3352.22        2625.61          82.40
        1185.10         505.46        1465.18       -1689.90        2084.09         561.12
         729.05          39.17        1190.30        -502.42        2093.88         352.79
          56.16         416.55         611.39         681.36        1784.51         352.53
         602.05          11.24        1702.21        -893.02        2127.47         371.32
         118.92         263.27         737.80         -57.81        2487.78         986.85
         164.17         150.92         347.57        -513.18        3400.48         868.77
          85.58          60.69         379.11         617.57        2407.03         324.87
          86.74          39.51         142.90        1671.65        1609.17         448.56
         353.71         171.54        1976.21       -1775.53        2824.01         307.20
          77.11         351.30         555.34        -182.72        2748.94         516.62
         543.36         177.07        4361.83       -3538.00        2005.71         605.65
         434.84         109.66         151.03         939.54        1914.91         190.03
         152.08          67.61        2416.89        -935.12        1848.49         481.34
         821.06           1.86        1262.33        -524.54        1989.26         443.84
         141.24          88.73          28.01         968.31        2323.66         648.79
          31.56          36.02        1269.19         459.67        1753.52         522.46
         641.90          71.26        1661.18       -1386.36        2561.98         853.19
         356.28         114.36        2670.50       -1588.80        1997.62         302.87
         410.15         102.11        1694.27       -1616.91        2960.35         858.87
         968.55          11.67         770.13        -624.31        2423.91         262.87
         773.33         124.67        1431.56        -710.59        1931.00         553.42
         242.09         212.55        1113.63         348.90        1632.79         376.22
         806.21         197.89        2032.66       -1196.23        1709.42         480.79
         535.64           8.86          57.08        1016.41        1931.96         312.18
         119.69         130.74        1483.10        -921.46        2737.89         589.56
          28.51         453.36        2088.89        -757.29        1736.48         611.07
          61.07          53.50        1954.45        -662.16        2143.13         237.12
          97.98         446.87          64.57         871.04        2069.49         784.45
          73.63          46.96         817.44         457.44        2154.50         387.06
         216.69           7.81        2120.27       -1511.10        2716.31         503.49
         365.12          65.25        2260.81        -843.89        1702.65         336.89
         445.53          86.72        1329.04        -333.94        2022.63         122.96
        2112.98         125.78        1828.99       -3182.12        2664.34         356.42
         416.32          87.03        3527.28       -2052.60        1571.96         298.59
         128.45          90.82        1999.01       -1160.87        2492.54         668.90
         399.84          81.52         484.98          46.01        2537.61         898.54
        1404.30         456.86        2519.90       -3572.22        2741.13         386.84
        1335.53          25.83         560.34        -990.79        2619.07         616.85
         172.30          58.40         858.56         404.13        2056.57         341.74
          33.11           9.03         682.34        -516.57        3342.05         653.53
         531.69         144.09         384.58          26.94        2462.67         474.89
         117.37         618.69          73.52        1007.82        1732.57         371.18
          84.67           0.41         317.75        1016.92        2130.20         264.95
         524.00          89.92        1854.75       -1822.85        2904.14         636.78
         174.65          32.33         932.13        -269.21        2680.08         925.68
         607.20          11.00         259.75          62.14        2609.86         515.63
         255.06          91.58         573.71         161.76        2467.86         661.66
         182.41          44.27        2385.00       -2034.25        2972.54         417.42
         253.63         100.92        1563.04        -941.29        2573.65         428.80
         580.96         155.55        2393.29       -3007.32        3427.47         742.60
         931.05          68.58        5042.73       -5002.12        2509.71         911.75
        1668.87           9.74         652.68        -994.13        2212.79         330.49
         806.61          35.21         916.15        -521.13        2313.11         639.05
         560.28         210.05        2525.74       -1586.64        1840.52         619.08
           3.60         291.90         730.01         358.08        2166.36         834.31
         327.96          60.51        2710.28       -2931.35        3382.55         971.99
         218.57           7.00         847.94        -414.34        2890.80         642.66
         171.07           5.48          94.97        1197.11        2081.35         760.37
         756.80           1.93        1662.78        -692.95        1821.38         488.97
        1908.61         147.79        1259.60       -1903.56        2137.51         652.15
         594.38          72.76        1246.06        -656.47        2293.23         213.29
          52.73          30.60        1367.68        -888.51        2987.47         465.68
         276.74          57.27        2911.13       -1899.66        2204.49         494.92
         106.06           5.66        3137.81       -2541.71        2842.14         168.73
         326.23         140.92         303.99          97.11        2681.71         642.72
         307.55         216.23         816.69        -852.77        3062.25         923.43
         236.72         169.92        1352.07          68.99        1722.25         563.54
         164.82          98.25        2913.22       -1551.12        1924.78         479.94
         253.07          73.92        1610.55       -1154.57        2766.99         340.84
         140.97         222.93         562.59        -492.74        3116.23         505.78
         267.03         128.02         733.85        -620.87        3041.95         527.79
          90.27         111.38        1928.70       -1686.12        3105.73         516.20
         751.85         146.94         169.65        -489.62        2971.14         657.38
         506.16          35.52          12.84         373.68        2621.76         359.97
         149.03          24.04         954.49         628.74        1793.65         431.10
        1355.78         302.18         989.60       -1766.64        2669.04         346.46
         321.31          44.59        1947.25        -872.17        2108.99         508.53
         305.81          14.44        1424.32        -769.30        2574.72         553.40
         211.31          12.61        2907.89       -2572.27        2990.43         162.76
         255.27         267.51        1131.73        -523.20        2418.65         568.24
         181.32          29.80         276.65        -233.46        3295.65         755.13
         183.10         130.89         102.33         238.44        2895.20         381.42
         135.87         543.34         244.27          41.16        2585.31         865.46
         521.44          88.23        3938.61       -3622.60        2624.29         742.75
         134.63          19.18        1751.07       -1193.05        2838.14         691.41
         955.63         211.75        1246.09       -2102.23        3238.72         601.04
         208.79          41.07          88.83         241.52        2969.75         405.95
         480.67         500.30        2198.13       -1934.81        2305.67         591.44
          49.91          63.41        1964.78        -167.90        1639.76         266.56
         580.62         670.23        1754.44       -1813.98        2358.65         828.66
         569.84          30.05         584.24          55.81        2310.02         513.22
         543.17         349.30        5116.23       -4518.86        2060.14         501.73
         170.31          54.46         772.28        -477.99        3030.90         377.10
         684.99           5.32        1987.59        -959.44        1831.51         537.48
         208.87          68.81         329.54        1019.53        1923.20         626.52
         145.66         134.67        1478.17         153.44        1638.03         392.78
         321.25         225.51        1803.85        -936.37        2135.72         361.25
          31.16         231.82        2678.83       -1745.28        2353.43         280.84
         392.80         113.91        1094.65        -262.24        2210.84         659.83
         467.83         382.12         410.91         703.88        1585.23         333.55
         466.43         274.11        2161.54       -2353.32        3001.20         978.84
         348.93          88.07        2534.89       -2440.24        3018.31         208.55
         341.81         196.88         699.25         669.76        1642.25         282.60
         125.26         165.21         371.57         730.22        2157.70         402.92
         552.55          45.72         716.63        -890.14        3125.20         572.13
         279.39          41.30         720.35         562.32        1946.57         329.63
          48.72         373.06         801.25        -134.74        2461.65         398.28
         462.02         182.78         289.24          34.57        2581.35         478.23
         112.65           2.11         703.66         222.11        2509.42         835.99
         192.10        1197.84        1559.83       -2025.89        2626.07         741.83
         776.39         101.33        1800.47       -1563.40        2435.18         202.48
         127.00         394.69        2334.07       -1906.74        2600.95         692.41
          96.93         262.41         222.26        1082.31        1886.07         561.37
         491.57          44.31         270.13         736.71        2007.24         612.20
         614.84         131.10        2158.01       -1468.55        2114.56         572.16
         178.67         232.04         146.49         461.91        2530.87         336.53
         323.45          36.73        1250.40        -870.19        2809.59         181.97
          81.19         310.17        2487.88       -1403.79        2074.50         690.46
          55.45          25.60         468.59        -308.22        3308.56         859.71
        1195.45          20.25        4316.22       -3732.25        1750.28         405.59
         230.63         234.11        2721.45       -1181.59        1545.36         413.27
         737.53          30.67         459.21         482.97        1839.57         337.31
         457.40          56.27        1149.50         -42.95        1929.73         389.77
         432.73         446.94        1476.94       -1316.71        2510.06         533.58
          94.90          10.10        1232.44       -1020.24        3232.77         596.95
         206.48         277.56         828.98        -391.86        2628.80         871.82
         107.05         684.15          51.18         380.24        2327.35         745.00
         106.63          20.64         793.55         912.85        1716.30         545.72
        1439.23         585.84        2549.92       -3029.06        2004.01         610.50
         129.69          57.49        1545.46        -972.88        2790.19         866.67
         127.45         187.12        3782.26       -2745.97        2199.10         242.11
        1042.02          14.19        2796.34       -2727.44        2424.83         630.09
          75.95          49.32         434.46         123.46        2866.77         192.53
         372.69           9.56        2439.10       -1472.51        2201.13         464.76
        1644.10          96.71        1462.63       -2032.52        2379.04         111.01
         325.48          84.31         369.11          10.70        2760.36         473.61
         381.82         190.93        3627.50       -2549.10        1898.82         629.42
         682.85          40.98        1181.43       -1006.06        2650.79         386.94
         306.98         218.37         901.64        -732.59        2855.55         918.47
          34.91         243.78        1468.49        -462.81        2265.57         758.17
          61.95          80.93        1977.21        -391.66        1821.52         528.72
         720.94         325.46        2269.24       -1815.02        2049.35         330.80
         319.80         500.19         490.83        -323.04        2562.18         592.61
          58.92           7.08        2715.19       -2343.05        3111.82         593.20
         910.62         157.78        1792.65       -1209.34        1898.24         222.26
          78.55         131.87        4372.99       -4142.64        3109.17        1115.06
         102.29           0.16         136.30         287.67        3023.55         427.99
         365.21          68.76        1617.45       -1155.07        2653.61         527.44
         230.86          34.14         951.00        -521.51        2855.47         283.40
        1117.93         252.88        3010.29       -2786.04        1954.90         704.11
         142.52         139.38        1090.86         316.00        1861.20         553.81
         295.93         732.65        1113.16        -528.10        1936.33         507.06
         310.39          44.25         332.11         910.01        1953.20         630.63
          84.67         255.33        2458.36        -795.42        1547.01         347.43
         257.80          53.44         987.28         579.82        1671.63         292.07
         777.67         210.72        1860.93       -1621.58        2322.24         815.34
         588.92          68.62         825.72          25.61        2041.10         339.74
         168.73         172.33         789.49        -685.46        3104.85         684.34
          85.90         160.74         613.18         742.14        1948.01         465.61
         252.92         254.49        2986.54       -2360.69        2416.69         418.72
         522.49         475.12        3946.57       -3264.88        1870.66         344.30
         298.51         212.09         722.50        -336.12        2653.00         553.30
         260.54         245.80        3590.88       -3018.52        2471.28         486.91
         923.76          73.95        1135.56        -854.71        2271.38         189.35
         499.14          27.20         529.02         496.01        1998.60         435.68
         194.10          98.69        1488.46        -462.36        2231.06         430.61
         329.42          56.67         416.35         608.17        2139.34         651.23
         792.39         280.32         286.51        -206.16        2396.89         882.54
         409.94         271.98        1538.58       -1574.72        2904.17         358.96
         332.02         119.22         194.60         982.67        1921.43         259.43
         235.79         163.49         997.71          65.24        2087.74         316.20
         161.54          26.80        1194.30         357.05        1810.29         212.13
         559.98         115.23        1432.25       -1413.51        2856.01         452.64
         348.07          55.29        2723.87       -2557.32        2980.06         337.06
         241.92           6.73        1498.40       -1515.15        3318.06         734.60
         434.70          40.41         358.96         480.78        2235.11         563.47
         113.23         105.17         866.23         289.83        2175.50         292.29
         357.16         303.07        2714.02       -3088.05        3263.78         825.98
          63.41         168.01        1448.15        -575.06        2445.43         333.90
         103.31         273.12         789.89         656.16        1727.48         157.49
         399.06         305.03        1364.73         -41.97        1523.12         496.56
         806.64         138.19        1337.33        -377.22        1645.02         183.45
         232.40         138.31         344.77        1016.76        1817.70         227.01
         187.38         159.45         213.10          88.64        2901.39         141.47
         560.79          24.01        2463.41       -1694.35        2196.09         547.85
         160.52         326.30         796.12        -676.64        2943.65         469.68
         389.35          49.52        1687.03        -395.98        1820.05         174.34
         666.45          27.44        2452.91       -1731.34        2134.48         534.74
         734.27          40.00         346.31         195.11        2234.28         566.87
         191.80           7.43         303.89          71.82        2975.04         349.98
         271.38         217.68        3038.28       -1789.52        1812.14         656.88
        1025.32         311.32         680.37        -547.74        2080.67         801.31
          78.78         341.58         105.65         843.38        2180.56         736.93
         179.27          10.38         197.43         206.10        2956.78         364.43
          41.07          18.64         975.56         923.97        1590.72         389.19
         268.58          22.07         552.93         358.75        2347.61         664.00
          82.28          49.14         935.16         261.64        2221.75         692.83
         503.43          64.64        2467.87       -2544.50        3058.52         538.24
          15.03         124.21        2246.19       -1756.23        2920.78         478.69
         333.02         158.25        1799.89       -1813.50        3072.30         612.72
         655.77         249.52          71.39         347.91        2225.35         159.80
         191.80         184.83        1274.27        -644.10        2543.17         704.92
         387.73         264.65          72.26        1151.65        1673.67         284.71
         711.81         232.62         931.15        -511.21        2185.59         318.74
         425.00          33.04         972.06        -759.47        2879.34         208.12
         407.74          66.99        1039.71        -966.76        3002.28         372.73
         184.87           8.10         855.34         749.96        1751.68         329.95
          86.46         136.30         315.46        -360.37        3372.09         834.82
         884.97         425.83        1896.67       -1512.63        1855.12         437.31
         177.78          26.62         126.15        1158.81        2060.59         385.80
         221.57          17.98         148.69         471.69        2690.05         344.67
         908.48          55.58        1842.83       -1127.97        1871.05         230.06
         445.53          17.20        1771.76        -462.49        1777.95         430.41
         278.73          43.51         243.36        1431.35        1553.02         403.92
         395.05         219.20          26.83         -28.83        2937.72        1009.91
         240.02           9.76         777.41         -69.18        2591.93         338.19
         390.72          28.51         228.84        -470.45        3372.35         509.62
         191.36          88.61        2580.44       -1428.15        2117.69         476.78
         143.63          34.46        2591.86       -1421.93        2201.93         362.70
         323.76         586.95        1695.48       -1788.02        2731.78         479.94
          83.11         121.56         892.04        -569.61        3022.85         556.94
         396.01           8.55         398.51         526.89        2220.01         280.50
          78.15          57.00         192.19        1403.78        1818.85         477.76
         168.73          41.77        3753.43       -2536.98        2122.99         469.49
         459.66         114.47         620.75        -648.24        3003.32         288.07
         131.83         224.69         182.58         764.37        2246.48         517.24
         274.90         128.19         785.84          18.97        2342.04         898.34
         247.63         143.62         313.25         737.03        2108.42         265.19
         320.39          84.92        1597.29        -505.26        2052.63         391.90
         346.00          26.52        1758.06       -1423.60        2842.97         836.92
         298.92         233.62        2278.35       -1931.83        2670.90         439.13
         104.11         202.26         764.70          25.31        2453.59         700.46
         703.74         568.98        1970.87       -1720.39        2026.76         446.30
         254.29         136.88        4186.04       -2799.83        1772.59         354.23
         510.11          27.19         334.65         563.63        2114.37         105.61
         128.46         133.71          18.99         465.90        2802.89         224.16
         166.70          46.37          41.26         528.81        2766.80         377.45
         234.56          20.87         321.33         116.53        2856.67        1112.07
         183.90          44.46          80.75        1014.21        2226.65         314.84
         184.35         162.11         576.61        -688.62        3315.49         790.12
         116.74          37.21        1063.92         184.98        2147.10         405.93
          29.81           3.72        1407.24         211.44        1897.77         605.91
         237.55         183.39        1848.60        -616.31        1896.74         390.39
         107.26         184.03        3552.65       -2622.78        2328.79         387.88
         370.17         165.68         751.27         190.17        2072.68         316.50
         595.42          99.56         336.65         245.74        2272.59         375.58
         303.17         158.99         404.16         166.59        2517.05         579.65
         158.10         342.31         346.71        -209.41        2912.23         517.75
         811.85          18.17        2505.82       -1992.83        2206.96         353.65
         354.05          28.58        3612.24       -2490.56        2045.63         591.99
         587.36           5.30        1007.06         265.07        1685.17         489.20
         104.13         338.84        1123.78        -510.99        2494.18         484.25
        1121.97         246.65        1713.76       -1551.75        2019.30         343.43
         639.85          38.67         957.60        -577.87        2491.72         725.85
         425.44         110.13         106.44        1049.40        1858.53         492.26
         509.62          85.25          10.11         959.88        1985.09         794.62
         233.57         686.32        2008.81       -1430.24        2051.51         331.40
         163.91         385.07        2341.01       -1060.85        1720.82         631.07
          97.44         238.25          13.46         529.54        2671.27         778.14
         628.10         201.49         273.60        -580.33        3027.12         467.02
         268.06         160.15         162.59         462.26        2496.90         735.04
         911.57         303.93        1269.20        -655.98        1721.25         539.25
         189.38          14.12         783.88         114.23        2448.34         748.98
         260.62         150.19         355.27         378.59        2405.27         724.66
         740.30         160.14        1832.23       -1083.59        1900.86         565.64
        1567.16         302.67        1157.19       -1966.54        2489.48         505.47
          67.53         345.50          55.57         219.80        2861.54         251.81
         323.33         211.43        1124.23        -467.50        2358.47         567.89
         494.11         402.05         861.93        -733.92        2525.77         978.46
          41.33         542.39        1346.16        -721.45        2341.53         932.94
         525.71          53.90         435.50         208.33        2326.54         446.32
         327.49         105.96        3881.54       -2491.67        1726.66         292.48
         369.46           8.57         686.85         479.31        2005.79         160.82
         819.60          95.60         667.15       -1080.49        3048.11         567.75
          22.43          98.03         997.97         356.38        2075.15         296.95
          24.62         172.95        1720.90        -732.81        2364.32         327.15
         916.64         152.42         473.54         117.69        1889.69         401.64
         773.44         452.82         666.17       -1895.61        3553.12         567.66
          47.52          24.08         689.16         653.87        2135.33         555.66
          36.62         166.23         689.41         503.28        2154.40         365.04
         148.16          50.40         287.90         -71.50        3135.02         628.30
        1828.87         383.61         631.41       -2349.18        3055.24        1137.14
           8.73         223.59        2180.02        -544.18        1681.82         204.61
         301.43          96.27        1530.76       -1308.15        2929.64         309.60
         639.86           7.95         623.22         225.38        2053.54         684.01
         686.56          59.24          82.76         629.16        2092.24         452.64
         695.61         197.77        3668.11       -4190.65        3179.11        1015.41
         362.57         136.67         693.18        -385.22        2742.74         626.85
          30.46         136.10        2060.93       -1396.38        2718.87         720.67
          97.08         556.45        3763.16       -2446.33        1579.61         280.73
          57.44         253.50         667.48         490.91        2080.63         657.39
         252.63         119.96        4326.23       -4036.88        2888.04         376.22
         500.63         387.24         497.98         345.73        1818.39         639.85
          84.96          49.45         186.94        1445.62        1782.99         295.64
         219.32          90.06        2191.70       -1263.59        2312.49         295.28
          94.89         140.69         929.79        -127.14        2511.72         242.36
         574.34          28.11         811.64        -214.98        2350.86         626.93
         370.63         136.80        1416.58        -968.96        2594.90         890.56
          28.53          45.38        1008.82         736.46        1730.75         257.58
         112.82         271.93        1829.59        -574.73        1910.35         485.52
         444.81         183.50          94.06        -230.51        3058.10         481.85
         726.57          35.36        1066.06        -818.44        2540.42         509.34
         453.85          53.15          41.29         702.15        2299.53         215.10
          13.48         300.30        2108.15       -1250.79        2378.81         890.00
          16.72          98.88        1653.60        -305.10        2085.85         373.44
        1703.28          98.29        2402.76       -2687.94        2033.55         176.41
         307.93          32.92        5091.48       -3565.95        1683.56         146.04
         386.60          49.08        2677.06       -1381.21        1818.43         486.17
          20.89          32.95        2995.46       -2947.99        3448.64         896.96
         364.20         283.77        2204.19       -1592.72        2290.52         528.01
        1467.36          29.45        1948.56       -2278.85        2383.44         187.62
         293.03         346.72        1147.73         -48.81        1811.29         406.17
         158.36         402.01         328.28         863.69        1797.61         493.95
         193.79         180.09         293.09         700.56        2182.43         367.85
         216.50          52.77        2556.33       -1568.67        2293.04         258.76
         702.98          43.74        1349.37        -700.70        2154.57         161.05
         216.35         481.43        2216.12       -1581.82        2217.87         739.19
         103.76         119.03        2617.60       -2355.39        3064.98         590.08
         244.97         202.80        1686.17        -554.44        1970.47         350.83
         503.72         204.59        1211.58        -539.77        2169.84         635.83
         466.12          53.55         599.28          -6.54        2437.54         373.37
         889.52          13.58        1315.96       -1254.92        2585.82         119.13
         757.11         323.96          64.93        -438.54        2842.49         345.78
          94.86         177.02        1674.22        -679.52        2283.40         208.22
         724.37          19.05        3225.12       -2583.41        2164.82         244.95
          93.60         207.07        1227.84          16.52        2004.92         509.68
         653.22          56.49         724.81         269.23        1846.22         353.95
          34.76         516.65         844.07        -706.06        2860.56         397.32
          75.17         213.08         450.06         741.90        2069.75         674.94
         639.47         399.36          27.73         528.40        1954.99         498.25
         471.42          23.29         794.79        -437.38        2697.83         929.85
         118.49         246.02         758.73         296.43        2130.28         476.21
         354.30          72.51        2084.79       -1628.91        2667.27        1028.68
         339.12          59.24         930.15       -1094.06        3315.51         715.12
         723.41         117.16          57.46         858.92        1793.01         506.99
         274.88         147.00        2037.10        -795.15        1886.14         402.80
         571.04          52.65        1641.48        -293.84        1578.64         176.99
         742.93         142.97        1552.01        -500.32        1612.37         469.38
         254.76          39.55         186.35        1618.65        1450.62         278.30
         124.32         128.13        3817.13       -2203.16        1683.54         198.54
          10.64          33.25        1177.37         251.24        2077.46         704.95
         121.73          57.25        1074.76         175.89        2120.33         224.69
         196.38          80.44        4179.95       -3734.99        2828.19         240.81
         245.19          94.39        2717.18       -2037.54        2530.76         647.78
        1475.47         354.85        1126.31       -1188.02        1781.37         477.36
         855.63          73.13        1520.19       -1728.71        2829.72         599.93
         648.24          33.16        2033.87       -1653.05        2487.74         378.82
         111.27         270.26        1734.65       -1369.84        2803.64         205.77
         194.06         145.48        3344.24       -2426.07        2292.24         422.82
         157.53         120.71         247.41         210.63        2813.69         435.15
         724.46         221.05          21.08         695.99        1887.36         279.66
         643.39         220.62        1347.69        -921.05        2259.31         473.12
         525.21         151.03        1562.20       -1310.26        2621.78         120.69
         382.45         187.12         221.30         483.49        2275.61         323.83
          83.61         394.64         830.48          42.63        2198.58         457.15
          79.92         299.42         706.11         310.18        2154.33         712.04
         530.98         128.10        1065.20        -178.29        2003.97         413.75
         364.21          26.29        2096.52       -1383.50        2446.43         624.59
        2200.88          27.57         962.07       -1368.55        1727.98         632.56
         321.93         162.23        2884.53       -2308.37        2489.65         401.05
         193.43          62.98         907.58          70.06        2315.90         513.26
         187.58         275.65        1458.56        -396.33        2024.49         425.52
         374.80         441.04        2749.41       -2085.50        2070.22         717.22
         488.03          26.54         207.63         231.40        2596.36         649.33
         343.59         234.51         220.80          45.99        2705.07         235.98
         854.60         253.36        3368.73       -2595.14        1668.39         164.94
         192.26          64.55         146.61         794.74        2351.80         580.70
         672.15          97.45        1649.09       -1336.90        2468.17         764.07
          88.27         267.05        2092.53        -934.35        2036.46         699.49
          75.36          45.64         837.53         544.30        2047.14         111.26
         199.52         179.34         498.68        -195.49        2867.91         610.76
         376.31         183.92        1187.30          66.74        1735.70         329.15
         604.17          70.25         430.21        -821.12        3266.44         678.33
          93.29         266.12        1851.17        -589.25        1928.62         540.06
         337.28          39.30        2029.52        -229.90        1373.75         166.69
          39.33         271.13        3322.45       -1892.93        1810.00         244.84
         657.20         353.83         781.74       -1147.22        2904.42         545.09
          74.92         102.30        1129.19          90.00        2153.54         462.54
         320.45         235.91        1515.83       -1444.95        2922.73         406.16
         415.50          15.09         167.74         101.60        2850.02         223.55
         519.39          87.67         411.44        -434.06        2965.52         360.28
         177.14         155.92        4715.39       -3242.61        1744.13         327.98
         288.80         136.52        1073.96       -1693.13        3743.80        1117.63
         361.15         175.95        2160.22       -1590.43        2443.07         387.18
         121.49          33.09        2328.82        -982.51        2049.07         394.51
         972.51           6.94         803.02         206.02        1561.47         402.84
         862.96         522.83        1121.85        -859.75        1902.06         495.98
         314.42         213.06        1321.66        -523.03        2223.84         365.70
         610.50          38.83           0.15         645.06        2255.43         273.07
         527.29         249.85        3910.75       -4296.13        3158.20         690.08
         409.71         133.24        1135.89         108.61        1762.52         296.26
          99.03          81.18         522.32         477.09        2370.34         394.19
         280.63         141.72        1507.92        -797.33        2417.01         804.37
         951.32          64.84        1973.95       -1961.48        2521.32        1042.75
         942.35          93.88        1033.64        -583.83        2063.93         270.96
          48.52         400.75        5174.03       -4742.43        2669.07         309.96
         104.93         459.15        3119.71       -2524.24        2390.42         532.38
         169.02         158.04        2595.58       -1913.43        2540.74         678.29
        1019.57         118.66         222.15         525.15        1664.45         454.70
         741.16         173.76        1983.90       -1403.85        2054.97         622.43
         351.69         106.24        1471.05        -407.06        2028.05         285.35
         462.54         216.25        2927.29       -2240.82        2184.69         625.46
          59.41          19.51        1938.18       -1386.25        2919.09         255.11
         931.83         146.30        1265.11       -1699.54        2906.25         637.34
         473.61         174.46        1108.94         191.33        1601.61         122.26
         203.33         152.57        4007.06       -2530.51        1717.51         359.05
         462.69          91.50        4289.91       -4831.87        3537.73         998.16
         204.01          55.25        2549.56       -1297.83        2038.99         285.59
         240.31         150.70         150.51         828.35        2180.07         678.56
         145.92          67.83        3150.42       -2370.43        2556.20         328.92
          34.44          58.74         459.11          48.93        2948.75         435.46
         434.26         102.00        1263.11        -572.09        2322.69         646.92
         168.67         149.42        2597.32       -2157.66        2792.20         264.92
          80.44         214.21        2436.26       -2150.92        2969.98         342.59
         784.72         273.73         660.76        -276.25        2107.01         459.80
         298.21          55.12         526.80        -606.30        3276.14         680.71
         437.58          82.99         423.56         530.36        2075.48         250.77
         111.68           2.92         442.19          -3.48        2996.66         412.25
         785.49         492.23         544.72       -1205.68        2933.19         416.64
         901.24         158.48         240.42           1.58        2248.24         334.57
          74.22         252.96        1078.75         -44.92        2188.96         429.92
         254.70         428.47         661.43        -148.62        2353.99         829.28
         398.17          75.48         320.78          -3.58        2759.10         263.02
         101.04           2.63          87.60         190.89        3167.80         635.97
         280.03         286.86        1673.39        -571.97        1881.64         123.82
         387.99         132.32        1076.55         163.59        1789.52         594.20
         569.88         428.75        2837.81       -3446.99        3160.51         999.52
         363.18         220.91         888.30        -317.45        2395.02         467.46
        1066.53         359.29        2381.95       -2314.34        2056.54         507.26
         265.53          48.80        3269.84       -2145.49        2111.28         363.10
         260.77          56.42        1002.33        -624.73        2855.17         531.07
         557.07         189.08        2082.75        -916.07        1637.12         543.66
         512.43          55.23         268.83        -190.82        2904.30         727.90
           4.29         205.30        3967.16       -2664.28        2037.47         275.93
         214.27          41.27         271.50        1288.70        1734.23         344.49
         694.23           5.59        2459.06       -1399.97        1791.03         674.26
         200.73           7.49        1835.56       -1443.00        2949.19         350.67
         391.09          70.58        2191.26       -1235.38        2132.39         409.55
          26.65          42.99        1263.83        -656.52        2873.01         366.73
         443.80         401.83         119.27        1156.33        1428.73         437.18
         518.70         121.74         582.98          60.63        2265.91         510.58
         229.87         475.40         405.31         263.58        2175.81         432.87
          68.87          73.06        1414.25        -456.47        2450.22         684.47
          78.03         106.47         651.67        -229.35        2943.15         884.38
         220.56         398.13         422.35          13.67        2495.25         814.36
         347.32         454.21        1485.28       -1076.87        2340.05         156.42
          64.01         114.36        4173.96       -2818.99        2016.61         392.46
         533.82         175.60        1323.37        -408.98        1926.15         349.71
        1003.24         270.20        2297.84       -1844.66        1823.34         534.72
         723.20         397.94         935.85       -1443.05        2936.02         341.86
         382.37         323.10         421.03        -538.26        2961.72         290.52
        1120.62          72.30        3664.13       -3049.69        1742.58         656.88
         206.25          14.17         549.63        1031.85        1748.04         522.79
         398.43          22.92        1294.90        -265.70        2099.41         352.03
         234.08          50.12        1439.42       -1060.25        2886.59         367.96
          96.70         272.28         110.77        -385.51        3455.71        1017.07
         521.21          70.40        1347.46       -1050.85        2661.75         307.20
         350.36         193.51        3094.34       -1749.52        1661.28         375.74
          22.77         399.52         718.39        -530.67        2939.94         489.80
          16.81         109.09         811.84         796.94        1815.28         424.52
         216.51         458.97         268.59         818.98        1786.92         447.32
         678.08         180.30         208.41          12.21        2470.95         329.50
         140.85          57.69        1090.53         236.04        2024.86         371.34
         864.30         203.49         860.14        -465.42        2087.44         536.85
          38.22         110.34        1815.62       -1868.36        3454.13         817.90
         116.03          82.45         248.47          -9.90        3112.93         351.07
         492.96          55.76        4548.10       -3405.50        1858.63          81.99
         172.62          74.73         834.06        -361.05        2829.62         439.05
         480.54         202.78         228.15         430.15        2208.34         471.48
         134.56          23.11        3044.29       -2542.37        2890.37         235.36
         773.58          77.98          49.61          29.86        2618.92         506.65
          42.08         101.41        2201.46       -1418.76        2623.77         772.83
          70.76           8.38         829.25         492.88        2148.70         356.05
          25.04           2.96        1831.96        -892.19        2582.20         133.26
          87.45         369.23         896.32         -40.90        2237.86         606.40
         337.64         110.42          32.00        1514.86        1555.06         293.88
         160.28          15.33        1115.67        -895.06        3153.75         502.45
          69.71         116.61        3775.53       -2630.85        2218.96         229.71
         294.11          15.92         955.83         313.28        1970.83         490.05
          69.28         262.26        1586.98       -1087.68        2719.12         623.07
         182.45          50.79        2550.98       -1588.76        2354.52          54.06
         285.93         498.86        3368.39       -2315.00        1711.78         482.46
         386.63          76.08        1530.21       -1075.39        2632.42         941.78
         766.26         167.93         612.31         121.51        1881.93         410.63
          81.72          68.61        1587.03        -811.04        2623.64         414.69
        1027.01         322.86        2009.04       -2228.68        2419.74         402.36
         565.13         155.20        1883.10       -1530.96        2477.49         949.69
         638.47         115.85         480.55        -413.38        2728.47        1299.04
         454.06         795.28         790.47        -189.12        1699.25         490.77
         920.34         118.06        1062.26        -830.29        2279.58         688.88
         127.41          27.39        1924.06        -396.79        1867.89         228.73
         729.10          35.78        4217.25       -3311.91        1879.73         581.41
         596.98          15.68        1553.96        -286.88        1670.21         408.66
          64.22          54.70          70.06         664.24        2696.74         220.92
          39.53          56.97        4624.00       -3393.54        2223.02         288.98
         166.50         245.39        1299.47        -508.19        2346.79         413.32
         207.11          45.43         529.26          -6.18        2774.34         744.38
         199.79          18.46        1399.97        -280.48        2212.21         574.45
         613.78          17.43         301.03         893.05        1724.66         378.55
         224.79          10.25        1149.56        -970.44        3135.79         900.03
          81.27         161.18        2181.64       -1279.16        2405.02         258.03
         311.21         416.00        3209.30       -3424.20        3037.66         462.06
         227.63         140.91        1269.81         200.66        1710.96         341.51
         302.54         161.34         532.44        -312.18        2865.83         471.85
          92.00         194.59        3715.88       -1848.37        1395.84         360.29
         167.36         210.61          28.61        1358.59        1784.80         262.21
          97.30         293.69         758.63         575.84        1824.48         508.68
         541.08          83.61         376.26         744.76        1804.26         521.38
         305.14          15.75        1335.73        -849.39        2742.73         475.04
         266.81         191.70        1538.26        -435.56        1988.75         680.51
         530.89         225.83        3063.07       -2447.95        2178.11         725.08
         207.21         117.88         660.10        -379.46        2944.24         290.06
         328.79         208.45        3412.19       -2376.19        1976.70         622.49
         194.85          12.71         334.96         804.43        2203.00         436.33
        1389.78          32.35        1024.64        -835.63        1938.83         149.34
         536.21          92.74        1316.73        -939.81        2544.08         171.39
         813.09          17.80        1790.51       -1599.42        2527.98         437.37
          89.72         106.66        1017.44         -13.77        2349.91         382.64
          12.44          37.13        2882.94       -2133.87        2751.33         180.11
         216.02          82.15        1723.58        -428.96        1957.19         540.06
         435.72           3.36         867.81        -771.67        3014.77         325.74
         137.60          36.92         938.64        -425.47        2862.26         897.48
         732.85         326.62         149.63         159.71        2181.14         691.23
         374.63         104.10         414.76         362.99        2293.48         723.12
         371.97         731.75         650.06        -172.80        1968.99         442.70
