 # Hard ZPE restriction,  Energy (cm-1), speed (m/s)
 #HCl ZPE (DMC): 1483.743446, WWW ZPE (DMC): 15602.536472
 #E_given = DMC ZPE + 3550 =21233.1103893624.
 #Dvib = Evib - ZPE
 #D0 = E_given - Erot(W) - Erot(HWW) - Evib(W) + Evib(HWW) -E_COM,E_COM=0
 
     #Erot(HCl)     #Erot(WWW)     #Dvib(HCl)     #Dvib(WWW)             D0         #Speed
         482.24           7.83         551.17         290.89        2217.83         151.61
         430.41         193.31         578.35         138.57        2209.31         157.85
         115.00          80.88         661.37          59.32        2633.39         434.47
          29.03         122.65        1111.43          80.51        2206.37         159.75
         342.32         179.06          64.03         704.63        2259.93         203.14
         408.06         178.90         226.76         454.32        2281.91         253.75
         610.55         204.03         422.95          14.87        2297.58         252.54
          81.05         176.33         133.72         604.02        2554.84         397.07
         314.23         228.08         393.77           6.22        2607.65         430.45
         109.08         127.24          98.58         929.51        2285.58         234.67
          15.12          41.36        1057.84         200.02        2235.62         176.94
         194.92          31.07         451.75         492.28        2379.92         302.49
          32.60          13.81         392.62         830.85        2280.09         225.98
          26.49         753.81          76.11         130.94        2562.62         412.79
         235.50         158.59         545.79         203.51        2406.55         326.85
         480.52          67.60          96.07          78.70        2827.08         516.21
          29.04          30.48         626.81         612.99        2250.66         179.58
           6.09         351.20         166.40         734.28        2292.00         263.02
         153.57          82.47         215.56         612.26        2486.10         354.37
         569.46         258.56           5.14         398.18        2318.62         302.25
         148.60         103.51         448.61         330.56        2518.69         378.66
         388.40           1.08          45.94         891.74        2222.81         157.62
           2.30         117.30         802.99         151.08        2476.30         370.25
          81.81          65.09         155.28         809.38        2438.42         340.74
         116.39          85.35         654.49         436.71        2257.02         231.32
         844.87          34.32         252.07         229.65        2189.06         106.40
         315.25         328.99         459.93          38.80        2407.00         321.62
         700.06         156.53         102.93         164.77        2425.66         344.63
         173.07         155.16         369.51         430.71        2421.50         336.17
         268.86         153.30         407.33         396.62        2323.88         273.32
         127.41         134.24        1001.29          80.92        2206.13         128.98
          28.91         136.84         189.85         452.20        2742.15         481.57
         254.06         148.09         545.20         330.54        2272.09         229.08
         166.47         248.23         216.75          79.90        2838.61         516.51
         371.25         122.87         293.52          67.81        2694.51         478.05
         206.67          15.02         916.04         168.89        2243.35         191.66
         320.34         130.01         360.40         555.83        2183.37         119.10
         135.32          70.12         265.55         729.59        2349.39         292.07
         163.52          78.42         622.36         415.92        2269.75         272.35
          35.55          72.34         784.41         181.96        2475.71         347.53
          19.90          29.76         461.44         756.67        2282.20         243.21
          51.15         482.06         264.07         431.85        2320.81         298.19
         362.84         258.49          60.55          28.80        2839.29         523.54
           8.68          88.99         894.22          44.91        2513.16         376.48
         119.88          92.75         255.37         481.38        2600.57         426.57
        1011.86          75.80          33.87          16.59        2411.82         308.93
         161.23          42.13         583.11         352.47        2411.02         323.00
         161.46          28.93         613.31         358.10        2388.17         322.98
           3.29         141.35         174.20        1030.74        2200.38         144.36
         347.78         182.55         152.87         572.98        2293.77         252.12
         129.44         357.06         485.84         303.15        2274.47         216.68
         398.28          56.30         469.64         196.41        2429.33         327.75
          67.56           0.52         158.92         682.76        2640.22         437.36
          83.20         173.48         500.93         580.61        2211.75         166.47
         188.04          52.49         153.37         875.34        2280.72         218.23
         317.76         594.25          45.95         338.61        2253.38         195.23
          86.35         114.30         203.77         894.96        2250.57         204.85
         677.29         104.00         417.32          80.50        2270.84         224.67
          90.97          44.79         561.50          45.95        2806.76         510.99
         340.75          48.64          87.45         776.02        2297.10         241.15
         217.34          27.74         604.96         448.26        2251.65         181.75
          10.29          13.58         849.98         493.00        2183.09         123.58
         362.35          60.83         369.83         412.22        2344.73         278.71
          45.81          37.49         795.72         104.86        2566.08         411.00
          54.55          76.21          62.57         740.70        2615.94         431.03
         217.47         422.06         179.31         450.20        2280.92         199.67
         214.94          43.15          86.72         349.11        2856.06         525.39
         122.95         207.91         215.18         461.47        2542.45         409.23
         361.32         190.35         200.99         561.11        2236.18         187.80
          54.37         206.91         907.41         147.24        2234.03         179.96
         397.49          12.85         100.21         839.72        2199.70         129.28
         381.45         140.20         337.67         390.77        2299.84         280.50
         106.00         252.44         640.05         277.95        2273.50         237.38
         248.30         227.14         148.83         723.25        2202.45         155.58
         401.13         297.77         310.05         265.56        2275.46         215.13
         149.96         398.02          32.79         187.20        2781.98         499.91
          15.12          61.79         336.07         883.97        2253.02         168.93
         136.14         248.95         148.36         263.65        2752.86         485.06
         198.77         260.95         713.27         153.89        2223.08         158.94
          73.81         249.59         689.54          89.89        2447.14         340.05
          37.46          39.12          19.73         837.23        2616.43         428.04
          30.72          15.84          97.67         861.66        2544.08         405.82
         335.96          11.20         487.99         494.77        2220.05         154.26
          15.13          94.58         255.20         496.20        2688.86         464.04
         296.99           3.53         129.73         899.53        2220.18         163.78
          95.93          68.49        1013.40         198.90        2173.26          93.12
          51.51         158.72         115.47         393.69        2830.57         519.12
          92.99         280.94         571.04         290.47        2314.52         263.63
         416.03         128.84         556.50         219.15        2229.43         165.86
         612.59          97.10         564.56          40.63        2235.09         176.46
          13.33          10.71         185.31        1089.56        2251.07         207.82
         248.79         325.43         563.13          71.58        2341.03         266.97
         129.39          47.25          61.59         608.19        2703.54         469.58
         223.67         460.45         173.33         477.95        2214.56         174.30
         551.13          22.02         229.63         225.47        2521.70         374.70
          53.73         117.04         474.68         614.75        2289.78         235.62
         425.53          15.05          56.09         663.05        2390.24         316.62
         344.70          95.42         630.06          74.86        2404.90         339.75
         259.25         240.85         325.91         375.39        2348.53         298.94
         380.12          84.44          31.80         735.59        2318.00         254.65
          54.42         111.22         385.48         194.51        2804.32         515.67
         121.88          17.63         167.16        1053.63        2189.67         137.90
          11.45          99.93         246.91         230.76        2960.92         571.78
          83.08         312.73         331.32         639.57        2183.25         110.20
         295.81          73.61         849.84          10.97        2319.74         256.04
         271.24         157.51         329.79         148.41        2643.02         439.49
         764.77          49.43         109.47         275.89        2350.40         282.58
         168.49         209.06         187.42         769.90        2215.12         150.32
          73.87         129.48         973.94          12.26        2360.43         277.74
          49.22         233.66         141.73         907.51        2217.84         168.80
         437.22           3.34          50.82         878.79        2179.80         114.73
          95.84         161.68         417.92         454.59        2419.94         338.02
         193.71          21.90         125.68         948.93        2259.75         219.22
           7.18          70.26         409.46         398.36        2664.70         449.87
         183.63         154.05         543.22         165.90        2503.16         370.93
          57.74         313.05          16.32         419.29        2743.56         483.67
         251.07           8.58         780.20         183.77        2326.33         272.30
         226.58         269.23         189.38         425.11        2439.67         307.42
          57.38         199.67          43.75         931.00        2318.15         259.69
         105.97         110.57         328.02         740.04        2265.36         205.25
          19.79         130.68         467.31         637.52        2294.67         239.37
         277.55         164.58         174.52         537.91        2395.39         313.14
          51.91          29.05         558.13         412.57        2498.32         371.83
         105.25          64.05         711.58         418.86        2250.23         208.43
         192.05          84.09         777.81          46.22        2449.77         360.89
          74.28          51.22         131.95        1041.71        2250.80         204.83
         601.62          35.71         314.38         347.58        2250.66         187.93
          42.01         299.71         354.57         399.67        2454.00         355.95
          22.72          21.18        1099.21         166.08        2240.76         171.51
         186.54          81.29         145.83         411.96        2724.33         471.37
         318.37           8.08         175.41         656.83        2391.26         333.77
         560.43          27.44         613.86          48.96        2299.26         239.85
          37.06          65.40         280.94         848.29        2318.27         254.29
          26.41          49.95         244.18        1024.58        2204.85         145.21
         100.64          82.51         190.04         965.96        2210.80         156.17
         144.16          99.94         150.34         959.70        2195.83         132.98
          34.37         178.14         840.82         232.03        2264.60         214.13
         147.25          41.34         434.09         686.40        2240.90         196.33
        1090.62          26.85         148.90          64.30        2219.30         165.94
          35.18         108.16         189.08         805.78        2411.75         328.68
          34.90          20.42         253.89         881.91        2358.85         264.88
         201.16         131.71           3.82         457.41        2755.86         485.31
         260.46          24.03         266.93         344.09        2654.44         448.80
          95.53         275.91         263.69         542.03        2372.79         301.21
         436.58          48.86           1.24         559.05        2504.22         366.79
          57.21          63.73         418.13         637.76        2373.12         311.05
          20.71          41.35         958.18         239.72        2290.01         225.31
         368.32          41.97         570.73         320.49        2248.46         197.85
         108.82         223.04         145.34         794.68        2278.07         209.19
         101.04         248.11          25.03         774.77        2401.04         312.24
          26.57         350.58          56.52         781.18        2335.12         253.14
         301.23         245.29         181.72         512.71        2309.01         253.26
         241.71          57.20         432.67         395.55        2422.84         339.02
         576.62           6.16          89.04         698.31        2179.83          98.83
         205.98         211.44         647.91          27.40        2457.21         354.43
          41.27         110.97         800.91          37.69        2559.14         408.19
         262.95         208.69         799.52          70.20        2208.58         152.72
          89.54          82.93          16.61        1106.33        2254.54         206.93
         104.82           3.87         210.79        1058.97        2171.52          92.96
         298.12          93.85         362.87         188.14        2606.98         415.95
          75.33          90.76         406.50         702.39        2274.98         238.46
          21.25          51.76         648.88         446.02        2382.05         298.51
         135.51           8.49          58.26        1165.10        2182.60          97.87
         423.21           3.27          49.11         804.37        2269.99         224.75
          15.80         196.57         121.02        1046.75        2169.84         120.25
         264.51         333.67         369.80         233.86        2348.11         291.92
         197.02         101.28         117.48         837.58        2296.58         267.25
         213.66         427.59         282.69         169.94        2456.07         354.27
         117.72          84.89         774.28         321.61        2251.46         214.66
         345.78          54.86         128.58         814.94        2205.80         171.19
         333.31         235.05          65.92         532.23        2383.46         286.84
          33.97         123.22         136.76         952.22        2303.77         238.70
          15.52          45.85         324.00         966.38        2198.20         151.59
          40.69         119.46         967.50         178.05        2244.24         226.16
         189.99         315.11         549.20         157.59        2338.07         274.25
         382.37          24.35         218.32         136.64        2788.28         504.05
         101.01           1.53         807.68          39.15        2600.58         423.22
          58.95          22.59         629.59         629.20        2209.63         143.43
         401.40          94.50          24.85         521.17        2508.03         385.16
         200.55          73.82         463.41         195.04        2617.13         430.00
         423.34         164.32         173.52         526.48        2262.31         209.30
          60.33         219.97          81.82         928.99        2258.82         213.21
          70.41          37.79         978.86         108.88        2354.01         276.51
          63.22          88.74        1023.14          89.10        2285.76         217.45
         582.84          81.38          48.36         346.17        2491.20         371.40
         104.82          40.88         491.26         563.87        2349.14         290.76
          41.06         126.21         357.19         752.18        2273.32         210.76
          78.11          34.56         833.17          31.67        2572.43         407.81
          74.08         112.84         384.22         776.77        2202.05         124.46
          34.18         105.55        1131.95          90.07        2188.21         138.13
         295.48          37.76         514.43          92.68        2609.61         424.20
          33.28          73.23        1011.88         221.28        2210.30         155.33
          37.45         135.35         330.63         507.67        2538.84         393.58
         109.58         113.64         386.79         208.70        2731.26         487.24
          57.25         332.75         201.06         716.02        2242.90         213.26
          97.91          62.78         553.32         215.18        2620.76         432.81
         312.23         360.00         388.70         229.45        2259.57         212.09
         240.05          89.98         661.73         329.38        2228.82         181.55
         242.65         147.81         280.00         110.96        2768.55         495.34
         246.15          17.45         153.07         724.53        2408.77         310.46
         422.19          34.77         431.90         360.70        2300.40         241.05
         102.46          54.83         226.38         377.37        2788.94         501.96
         297.63         326.54         128.11         236.89        2560.78         403.54
          24.16          73.79         635.76         587.12        2229.13         181.74
        1054.34          47.09           0.63         128.21        2319.69         255.51
         224.09         272.11         634.30          21.51        2397.97         316.90
         265.15         137.44         693.63          63.25        2390.49         308.21
          55.85          69.04         132.65        1017.00        2275.42         234.98
          17.32         166.35         458.39         421.37        2486.53         353.69
         735.30          34.05          35.93         252.54        2492.13         363.38
          45.78         185.64         603.86         161.50        2553.19         397.22
         587.93         206.57         224.85          50.75        2479.85         357.19
         105.20          96.56         213.66         671.81        2462.72         359.98
         683.77         281.81         309.65          22.11        2252.61         216.51
          61.90         108.92         624.02         172.29        2582.82         407.92
         243.93         100.53          68.87         443.79        2692.84         456.92
         132.81          57.84          56.75        1065.72        2236.82         184.86
           2.10          40.33         375.69         546.70        2585.16         414.70
         477.51          81.47         348.78         377.57        2264.62         204.41
         231.47          94.41          33.38         638.97        2551.74         409.21
         329.81          11.91         844.49         136.02        2227.74         185.08
         289.46         203.27         226.17         337.10        2493.94         374.01
          62.18          12.02         259.85         786.03        2429.89         328.28
          74.76          31.28          46.37         538.63        2858.91         536.89
         195.45         339.32         529.59         288.50        2197.09         131.72
          71.19         207.47         206.72         641.19        2423.40         319.41
         280.79          13.08         769.72         114.66        2371.71         290.12
          52.57          30.12         498.96         756.44        2211.88         181.95
          41.80          35.06          40.74        1040.18        2392.18         310.19
         142.26          37.63          74.66         983.00        2312.41         270.84
          59.15         764.85          66.11         350.85        2309.01         242.26
         105.29         552.37         159.27          96.17        2636.86         448.09
          22.71          61.71         823.11         241.20        2401.24         304.06
         191.48          31.91         219.32         453.53        2653.72         447.71
         472.38          20.02         326.21         178.37        2552.98         420.07
          87.40          50.52          67.52         920.67        2423.85         330.40
          74.52         229.36         325.14         639.90        2281.05         232.21
         262.05         428.22         153.11         419.94        2286.62         258.61
          24.99         736.42           6.46         451.02        2331.08         271.14
         163.55          49.31         219.97         607.66        2509.48         385.90
         185.10          48.30         122.35         814.87        2379.35         283.54
         171.87         263.69         487.77         181.60        2445.04         344.62
         209.30          51.37         142.77         824.77        2321.76         261.57
         231.22          14.17         929.68          57.74        2317.15         259.85
         223.15          95.33         826.35         171.52        2233.61         161.56
         262.92         203.52         207.66         468.84        2407.02         317.96
         255.43         615.73          12.18         252.12        2414.49         333.55
         123.78          83.74         408.17          71.94        2862.33         524.88
         136.47          62.63          12.69         729.56        2608.61         433.87
         231.27          14.79         346.43         526.25        2431.22         346.42
         356.45          91.43         375.19         449.42        2277.48         237.05
         185.64         183.87         389.29         518.81        2272.36         212.44
          52.81         229.69         187.52         828.67        2251.28         207.85
          84.78          12.81         884.39         252.07        2315.91         249.23
          32.96          43.45         237.35         822.02        2414.19         321.95
         169.86         137.78         454.94         464.92        2322.47         272.02
         673.04         107.91         428.71          55.66        2284.65         228.15
         322.26         239.38         274.37         129.12        2584.83         417.07
         114.82         217.51         176.57         504.52        2536.55         399.38
         249.36          36.47         137.82         861.34        2264.96         198.23
          51.21          46.30         124.92         991.70        2335.83         269.54
          99.12          14.68         225.95         998.96        2211.24         179.54
         161.91         120.18          46.73         658.20        2562.95         394.81
         101.40         396.25         689.62          79.41        2283.27         230.26
         360.38           3.68         731.99         262.08        2191.84         142.64
         108.49          87.78         646.19         505.66        2201.83         110.42
         389.46         238.32         629.14          53.80        2239.24         188.37
          62.28          70.60         643.72         570.18        2203.19         150.98
         153.57         149.12         142.59         807.88        2296.79         240.13
         203.44          76.47         437.91         454.33        2377.83         302.63
         200.35         104.40         392.09         435.03        2418.11         346.56
           1.08         163.74         528.26          43.22        2813.63         523.21
         144.73         146.65         546.68         270.46        2441.44         347.57
         350.80         221.26          13.59         708.17        2256.12         224.21
         221.71          17.65         389.00         173.71        2747.86         497.51
         110.79         251.60         431.15         557.84        2198.58         135.34
         148.24         439.24          47.23         634.48        2280.78         240.65
         456.91         129.82         307.68         442.45        2213.10         169.25
         166.55         659.25         189.80         166.53        2367.83         300.69
         266.45          37.39         430.61         421.81        2393.71         309.55
          44.33          49.50         295.93         759.05        2401.13         302.63
          16.72          48.18         375.76         902.26        2207.04         137.77
         434.61          42.47         197.63         412.09        2463.16         364.23
          33.15          10.24          62.91        1040.87        2402.79         316.52
         189.33           3.02          69.79         937.68        2350.12         277.49
         144.81         444.44         156.78          70.19        2733.75         478.22
         313.26         147.78         715.98          99.95        2273.00         210.62
         272.09         120.96         207.95         618.51        2330.46         252.05
         626.21           5.14         189.94         263.80        2464.88         368.79
           9.61          11.78         127.28         787.54        2613.74         427.10
         189.82          81.31          73.10         874.21        2331.54         269.67
         590.27          53.10         231.51         309.65        2365.45         298.14
          29.14         205.69         454.07         321.14        2539.91         396.13
         436.41         203.81         150.97         100.17        2658.61         463.59
         165.25         127.19         129.70         817.98        2309.84         239.80
         284.24           0.65         201.80         728.69        2334.58         284.75
          49.18          14.21         141.91        1123.30        2221.37         188.93
         377.68         422.13         217.30         218.20        2314.66         268.37
         219.01         351.30         145.73         489.94        2343.98         276.17
         225.18         238.02         423.44         463.65        2199.68         174.45
         262.97         146.42         486.52         348.99        2305.05         244.13
         167.20          58.94         256.21         645.58        2422.03         349.07
          80.09          93.97          85.69        1083.40        2206.80         147.89
         216.34          93.03         459.74         460.49        2320.37         250.43
         499.34         124.15          60.73         340.64        2525.11         399.87
         112.92         205.90         423.96          29.14        2778.02         497.56
         512.41         207.55         129.56         117.08        2583.36         427.56
         108.13         253.12         125.74         137.26        2925.70         556.18
          37.23         189.86         301.32         558.82        2462.73         340.25
          60.15          18.64         248.78         665.70        2556.69         387.57
         243.52          36.21         894.24          53.38        2322.60         275.56
           6.75          94.63         119.18        1038.87        2290.54         235.63
         322.44         107.18         222.76         544.98        2352.62         297.15
          51.42          50.14         607.02         483.98        2357.37         309.70
          87.65          66.86         539.24         630.68        2225.55         202.20
          37.06          83.39         492.80         418.81        2517.89         381.17
          63.83          65.49          93.25         871.13        2456.24         360.41
         204.62         109.04         142.50         178.52        2915.29         559.50
         115.83          18.40         382.31         767.53        2265.90         216.96
          20.10          19.86         908.57         209.38        2392.04         314.24
         261.34           0.87         129.97         759.63        2398.15         312.98
         324.30          41.83         520.28         467.94        2195.60         150.88
         173.43          67.39         621.64          33.55        2653.95         448.66
         355.37           9.05         369.59         516.73        2299.22         261.59
          14.82         186.10         525.84         602.45        2220.75         191.46
         130.75          40.07         304.59         837.60        2236.97         191.63
          42.55         119.02         204.22         619.83        2564.34         406.20
          42.46          22.95        1025.24         156.49        2302.82         236.64
         145.15         387.29         507.26         230.23        2280.04         228.55
         362.92          28.14         142.14         737.82        2278.92         216.26
         150.69          13.22         182.08         979.43        2224.55         155.27
         339.67          62.85         173.79         721.20        2252.46         215.34
         110.61         108.04         175.20         650.49        2505.62         366.82
          91.07         682.81          84.06         354.19        2337.84         261.88
         260.75          26.46         336.90         542.35        2383.52         309.35
         670.06          62.87         419.69          33.13        2364.21         288.89
         210.42          47.57           4.52         982.44        2305.00         238.36
          53.34         611.26         465.33          77.90        2342.14         265.85
         131.61          14.33         316.73         708.15        2379.15         302.65
          50.35         476.54         581.31         220.81        2220.94         165.41
          68.51          17.94        1100.50         120.28        2242.72         161.59
          44.33          22.91         401.72         363.24        2717.75         475.89
         626.65           2.39         633.37          50.15        2237.40         185.55
          22.97         135.16         269.24         867.48        2255.13         203.11
          97.33         178.44         542.81         350.07        2381.30         290.89
         359.36         162.91         159.90         599.30        2268.50         215.62
           9.52         130.86          14.86         937.46        2457.26         352.09
          39.14          43.21         183.60        1018.93        2265.08         225.02
          83.37         167.32         112.65         773.94        2412.68         325.46
         608.29         135.43         222.29         120.24        2463.71         358.66
         246.50         307.06          15.61         739.57        2241.23         180.81
          39.34          84.10        1049.50          89.20        2287.81         233.85
         176.30          74.70         444.11         392.42        2462.42         349.98
         219.58         228.66         292.91          18.34        2790.48         500.24
         183.85          30.68          34.09         909.64        2391.68         303.48
          24.85          94.82         578.19         209.06        2643.02         447.37
         159.46         124.76          56.78         827.80        2381.17         298.68
         435.77         100.20         677.74         149.64        2186.61          96.56
         150.35         208.13         132.41         624.67        2434.41         345.78
          71.63         169.54         400.05         617.50        2291.23         249.25
           1.32          70.85           0.20        1166.40        2311.17         248.58
         823.55         158.58          33.52         173.50        2360.81         293.39
          13.93         252.13          19.05        1058.53        2206.34         144.65
         237.19          53.11         157.84         828.72        2273.10         220.60
         153.86          83.49         161.56         857.94        2293.13         262.04
         163.43         158.88          55.02         460.58        2712.06         483.81
         622.10          81.42         252.25         295.42        2298.77         245.19
         348.87         184.79         499.45         200.68        2316.15         245.48
         244.30           4.74           0.39        1040.37        2260.17         201.18
          15.23           6.89         801.13         320.01        2406.68         302.96
         350.22          28.94         906.10          11.19        2253.52         209.83
          55.25         252.15         393.19         593.70        2255.69         207.85
          23.98          78.67         666.78         489.16        2291.38         236.92
         411.36          96.32         147.51         572.86        2321.91         276.87
         426.72         131.14         281.38         248.83        2461.89         342.89
         106.67          73.03         837.70         297.32        2235.24         179.38
          89.46         170.62         388.63         698.94        2202.30         146.27
         188.23          27.05         509.06         470.56        2355.08         273.66
         150.64         209.71         457.49         503.63        2228.50         157.18
         184.88         425.29          29.75         481.03        2429.00         334.12
         251.37         101.01         141.97         827.19        2228.41         179.27
          42.66         128.75          49.81         682.16        2646.59         433.63
         378.66          44.46         658.40          53.77        2414.69         313.46
         421.06         181.75          65.13          88.83        2793.20         500.30
         262.63         111.73         340.88         567.36        2267.35         250.26
          36.65          18.16         645.15         342.52        2507.51         379.96
         428.40         139.58          39.32         466.31        2476.35         357.70
         447.16         326.42          40.85         505.30        2230.22         152.84
         372.44         328.29         258.82         216.19        2374.22         309.03
         209.75         222.00         520.57         378.01        2219.63         165.60
          42.85         130.59         199.26         780.87        2396.40         320.09
          78.94          80.08         301.13         871.26        2218.58         144.66
         332.25          20.69         158.36         143.11        2895.54         548.19
         621.87          13.31         146.67         535.62        2232.49         217.89
         257.60          57.90         381.59         623.01        2229.85         161.16
         100.02         238.77         542.58          47.68        2620.92         436.78
           1.58          23.08         766.95         237.49        2520.87         387.38
          11.20           1.09         490.78         832.34        2214.54         178.00
         381.10          54.38         332.49         215.41        2566.59         406.08
         426.79         144.49         197.68         353.48        2427.52         335.23
         111.75          77.83         515.91         627.55        2216.92         150.28
         197.30          21.01         158.96         958.21        2214.50         152.14
         450.09         169.84          28.26         226.00        2675.79         458.21
         532.40         105.44          38.84         580.32        2292.97         252.61
          35.19         219.23         249.04         461.63        2584.87         411.98
         114.47         202.00          97.70         921.46        2214.33         218.92
         318.23          76.71         442.57         489.38        2223.08         165.08
         283.03         131.64         371.82         425.35        2338.14         265.89
          57.02          83.59         591.77         412.01        2405.57         309.99
          23.66         253.97         240.10         688.53        2343.70         270.95
         552.78         228.86         341.70          17.90        2408.71         314.37
         128.62         133.10         687.37         295.99        2304.87         251.67
         359.63          62.08         667.07         241.19        2220.01         157.84
          99.19           3.65          99.70        1168.60        2178.83         103.75
         194.43          59.03         156.28         847.30        2292.92         237.69
         198.84          53.08         180.74         535.58        2581.73         411.22
         144.55          81.71         619.20         291.38        2413.11         321.16
         812.60         155.82         309.75          14.61        2257.19         181.45
          42.67         189.99         606.62         179.13        2531.55         383.82
         274.47          27.12         236.06         824.50        2187.80         100.92
          37.70         305.63          82.22         655.70        2468.71         345.60
         251.32          47.07         362.04         622.38        2267.15         213.13
         162.85         190.14         243.61         353.87        2599.50         424.38
         206.87          12.92         167.98         500.88        2661.30         456.61
          33.51          77.98          27.05        1122.95        2288.47         260.70
          80.29          92.57         204.15         743.19        2429.77         325.57
         387.64          42.79         449.66         412.88        2257.01         188.85
         276.60         287.22         188.77         485.47        2311.89         250.73
