 # Soft ZPE restriction, Energy (cm-1), speed (m/s)
 #HCl ZPE (DMC): 1483.743446, WWW ZPE (DMC): 15602.536472
 #E_given = DMC ZPE + 3550 =21233.1103893624.
 #Dvib = Evib - ZPE
 #D0 = E_given - Erot(W) - Erot(HWW) - Evib(W) + Evib(HWW) -E_COM,E_COM=0
 
     #Erot(HCl)     #Erot(WWW)     #Dvib(HCl)     #Dvib(WWW)             D0         #Speed
         105.64          59.75       -1106.15        2282.81        2207.92         126.23
         530.00         204.63        1830.78       -1304.06        2288.61         259.68
         653.69          99.52        -838.38        1013.36        2621.76         426.18
          53.10          25.35        1305.54        -125.47        2291.45         222.00
         482.24           7.83         551.17         290.89        2217.83         151.61
         300.65         497.30        -698.18         836.66        2613.52         424.62
         578.54          41.03        1547.44       -1056.70        2439.65         336.59
           0.02          50.74       -1144.47        2274.79        2368.88         284.84
         322.98          93.94       -1259.66        2195.03        2197.67         116.13
          95.99          38.03        1632.40        -785.07        2568.62         417.83
         104.89         250.11        -916.95        1852.64        2259.28         210.27
         428.63          22.10        -858.76        1324.13        2633.85         443.15
         328.52          42.33       -1243.74        2102.47        2320.39         253.05
         534.61         202.39       -1039.83        1543.28        2309.50         261.61
         470.67         365.75       -1164.58        1624.68        2253.45         189.35
         654.17         218.21        -365.65         821.10        2222.13         152.69
         430.41         193.31         578.35         138.57        2209.31         157.85
         258.73          96.73        -937.50        1822.85        2309.14         249.56
         556.24          34.13        -365.57        1068.71        2256.44         173.96
         115.37         138.05        -636.57        1157.51        2775.60         488.42
         445.91          34.16        -122.43         776.76        2415.56         328.31
         193.39         481.66       -1125.88        1321.17        2679.61         462.32
          39.23          79.17        -716.03        1867.42        2280.19         214.71
         209.20         111.74        -853.78        1630.59        2452.22         334.88
         586.99         260.90       -1440.44        1725.35        2417.16         328.66
         835.21          15.29        -558.53         855.43        2402.56         308.67
          85.86          44.35       -1227.66        2293.82        2353.60         275.40
          76.11         238.01       -1069.78        1842.69        2462.94         339.31
          29.17         429.87        -447.35        1263.23        2275.04         212.24
         426.69          91.44        -293.50         990.04        2335.29         269.16
          83.23         146.45        -331.47        1354.95        2296.80         237.93
          98.39          59.09        -634.64        1629.34        2397.81         298.96
         739.10         112.27        -491.48         639.89        2550.20         393.16
         135.19          51.24       -1013.77        2196.72        2180.59          95.61
          91.35          27.20        -866.65        1887.96        2410.10         317.90
         221.53         106.41       -1308.43        2327.85        2202.57         171.67
         350.81           5.68       -1206.44        2147.41        2252.49         205.44
          94.94         409.41        -435.41         529.64        2951.39         560.90
         457.45         160.06        -130.95         740.67        2322.74         261.47
          90.74         166.37        -406.59        1386.12        2313.32         249.16
         115.00          80.88         661.37          59.32        2633.39         434.47
          29.03         122.65        1111.43          80.51        2206.37         159.75
          28.26         296.03        -176.17        1077.37        2324.48         270.18
         195.32         345.53       -1420.39        1976.51        2452.99         344.11
         191.19         103.20        2276.01       -1237.87        2217.41         161.88
         394.60          56.16         840.16        -230.74        2489.78         368.93
         635.44         114.95        -541.04         932.98        2407.62         316.53
         342.32         179.06          64.03         704.63        2259.93         203.14
           1.82         182.19       -1461.23        2357.60        2469.58         364.57
         186.15         232.17       -1279.89        2190.45        2221.08         182.66
         196.44          75.60        -131.04        1159.64        2249.32         199.24
         234.01         368.43        -436.47         460.39        2923.61         551.95
         199.78         551.80        -717.50        1024.39        2491.48         362.06
         252.85         154.94       -1447.07        2171.47        2417.77         322.62
          41.09         148.64        -379.63        1364.11        2375.75         298.03
          67.72         114.66       -1475.09        2501.29        2341.38         283.85
         285.58          62.44       -1279.17        2187.02        2294.08         234.99
         513.15          71.50        -926.19        1468.55        2422.94         336.61
         174.70          55.71       -1457.88        2549.17        2228.24         201.89
         668.31           8.97        -936.23        1198.72        2610.19         441.75
          66.43         191.33        -683.18        1543.93        2431.47         337.49
         110.34         771.94       -1387.80        1501.33        2554.13         399.85
           7.14         385.85        -336.39        1237.95        2255.42         191.25
         331.85         717.60        -777.53         899.68        2378.36         293.49
          59.03         252.94        -535.45        1513.88        2259.54         220.72
         263.59         154.08       -1159.97        1652.41        2639.86         449.45
         201.28         608.33        -228.25         528.61        2439.99         335.87
         140.27          34.34        -746.81        1783.62        2338.53         273.60
         408.06         178.90         226.76         454.32        2281.91         253.75
         179.87          54.69        1386.90        -594.32        2522.82         387.96
         610.55         204.03         422.95          14.87        2297.58         252.54
         286.09          73.29       -1193.74        2092.04        2292.27         257.67
         164.16          97.54        -857.42        1741.53        2404.14         322.67
         126.72         136.69        -312.25        1350.85        2247.94         198.57
         195.43         436.12       -1250.56        1344.99        2823.98         517.42
         263.15         276.30         868.00        -205.10        2347.60         272.79
          56.44         230.41        -758.90        1602.31        2419.70         342.79
         358.23         135.74        -808.14        1145.51        2718.64         478.77
         142.79          22.17         552.74        -433.41        3265.67         680.92
         138.28         939.72       -1086.34        1151.97        2406.33         324.94
         856.61          47.55       -1054.77        1395.12        2305.43         255.60
         381.93         109.20        -999.73        1566.88        2491.67         363.17
         241.31          10.19       -1382.73        2057.65        2623.53         433.31
          21.80          72.58        -823.77        2076.40        2202.96         127.21
         473.36          94.95         942.00        -285.56        2325.20         271.24
          81.05         176.33         133.72         604.02        2554.84         397.07
         273.73         226.71        1039.01        -460.40        2470.93         357.04
          86.24          81.56        -998.05        2136.01        2244.19         181.73
         129.44         357.06         485.84         303.15        2274.47         216.68
         464.45         513.84        -943.45        1308.60        2206.50         172.68
         410.23         227.45        -460.90         826.56        2546.61         404.15
         100.72          55.32        -340.35        1513.58        2220.72         170.79
         305.05         416.90         840.96        -425.25        2412.30         323.76
          51.70          50.17        1189.21          25.23        2233.65         197.97
         638.66         159.41         -27.16         517.01        2262.04         204.20
         119.29          26.06        -318.67        1315.79        2407.49         308.67
         226.22          50.61       -1042.00        1983.61        2331.54         281.93
         165.42          43.05        -908.31        1876.54        2373.27         307.66
         543.31         165.90       -1315.33        1540.66        2615.40         427.71
         125.82         476.31        -351.10         724.80        2574.13         412.97
         542.26         178.33       -1150.57        1369.37        2610.55         436.20
          76.02         131.32         979.32        -514.75        2878.05         539.98
         187.44         250.11        -688.14        1373.54        2427.01         340.55
         327.46         179.03       -1318.97        1844.55        2517.89         378.41
         314.23         228.08         393.77           6.22        2607.65         430.45
         145.91         121.72       -1392.87        2200.93        2474.28         362.02
         398.28          56.30         469.64         196.41        2429.33         327.75
          92.23          83.02        -822.63        1660.17        2537.15         395.09
          61.10         154.91       -1408.17        2285.94        2456.17         360.52
         153.62          20.31       -1394.15        2274.90        2495.26         375.51
         109.08         127.24          98.58         929.51        2285.58         234.67
         208.45         371.06         909.68        -292.50        2353.28         285.64
         554.71         152.77        -619.69        1136.35        2325.80         302.09
         210.32          59.85       -1175.21        2071.23        2383.78         295.02
         195.02         141.95        -569.36        1229.29        2553.07         362.34
         184.79         703.09       -1175.68        1500.13        2337.62         296.45
         754.37         219.44       -1395.99        1778.18        2193.96         170.67
         299.12          12.47        -512.75        1549.02        2202.10         128.61
         217.34          27.74         604.96         448.26        2251.65         181.75
         136.19         100.52        1662.70        -674.61        2325.17         266.83
         185.12         388.56       -1190.09        1695.69        2470.69         354.05
          10.29          13.58         849.98         493.00        2183.09         123.58
         310.25          97.60         742.64        -104.70        2504.19         388.51
         362.35          60.83         369.83         412.22        2344.73         278.71
         137.20         318.46        -498.84        1381.94        2211.21         132.43
         114.49         366.79        -745.74        1512.68        2301.75         253.74
         140.94          54.73        1203.86        -270.54        2420.99         334.76
         624.18         173.91        -908.65        1460.61        2199.93         151.00
         427.78         182.90        -745.41        1429.67        2255.05         192.57
         196.06         371.68        -408.60        1008.05        2382.76         296.47
         176.54          54.63       -1338.29        2263.31        2393.76         314.66
         270.15         247.58        -363.33        1080.05        2315.50         247.36
         112.00         243.54        -132.54         173.94        3153.04         627.69
         102.34           8.57         684.55        -211.02        2965.53         566.16
          15.12          41.36        1057.84         200.02        2235.62         176.94
         194.92          31.07         451.75         492.28        2379.92         302.49
          12.32         196.44        -978.83        1919.47        2400.56         323.43
          17.92          44.26         882.67        -151.81        2756.93         492.67
         293.91           7.36        -125.43        1180.84        2193.28         105.30
         315.38          73.95         655.63        -223.19        2728.19         479.08
          77.64         147.08       -1129.91        2198.40        2256.75         192.16
          45.81          37.49         795.72         104.86        2566.08         411.00
          18.03         389.79        -450.90         976.51        2616.54         426.24
         329.68         106.75       -1308.02        2090.16        2331.37         269.75
          68.93           9.25       -1282.43        1796.02        2958.18         572.85
         234.98          27.14        -503.29        1311.89        2479.25         367.91
         112.67          75.96        -461.50        1468.42        2354.41         288.29
         257.72         898.19         -86.45         212.87        2267.61         236.62
         284.48          44.28       -1377.14        2388.91        2209.43         184.40
          68.81         128.04        -897.75        1535.02        2715.83         477.05
         852.84         284.56       -1362.37        1406.72        2368.20         309.72
         422.43         228.67        -288.52         902.65        2284.72         241.89
          27.05         234.47        1810.51        -930.23        2408.17         318.61
         230.84         383.52       -1482.88        2009.53        2408.96         310.42
          32.60          13.81         392.62         830.85        2280.09         225.98
         478.52          81.54       -1429.50        1990.36        2429.03         329.68
         301.50          67.02       -1126.68        2125.35        2182.75         123.14
         199.54         140.75       -1437.82        2322.61        2324.88         250.84
         467.39          45.56        -334.15         710.95        2660.23         443.43
         433.73          23.77        -843.28        1435.28        2500.46         375.19
         440.23         104.80       -1447.10        2142.15        2309.88         242.04
         318.77           5.38        -307.01        1067.94        2464.89         338.32
         176.50         154.01       -1156.18        2102.61        2273.03         226.62
         109.49          26.49        -882.44        1968.17        2328.26         271.00
         136.25         913.59        -597.07         680.13        2417.04         322.94
          22.79         124.28        -847.21        1813.63        2436.47         324.53
          71.72         163.32        1229.09        -327.85        2413.67         307.60
         756.10         132.66        -163.08         622.78        2201.52         143.77
         170.01         378.15        1037.91        -264.69        2228.57         167.61
         244.17           0.81       -1398.46        2371.97        2331.48         278.60
          26.49         753.81          76.11         130.94        2562.62         412.79
         417.18         166.85        -682.01        1333.08        2314.88         242.71
          41.62         394.91       -1352.26        2247.64        2218.06         176.28
         603.89         100.16        -339.71         356.06        2829.54         529.94
         750.00          48.79        -579.46        1093.62        2237.00         181.25
          94.41         340.19       -1446.32        2253.44        2308.25         235.83
         235.50         158.59         545.79         203.51        2406.55         326.85
         287.36         685.71        -650.61         940.13        2287.37         235.77
         181.41         140.80        -890.71        1923.18        2195.27         162.68
          81.55         130.29         -17.02         486.00        2869.16         537.46
         629.99         164.92        -731.51        1248.88        2237.67         183.69
         173.19         200.42       -1363.24        2218.87        2320.73         257.89
         574.57         511.15       -1471.95        1654.09        2282.09         205.66
         337.62         112.63       -1333.82        2145.28        2288.24         228.51
         480.52          67.60          96.07          78.70        2827.08         516.21
          10.16         162.31       -1188.47        2380.89        2185.06         115.27
          29.04          30.48         626.81         612.99        2250.66         179.58
         454.44          59.32       -1151.24        1925.73        2261.68         211.10
         353.69         171.27       -1185.79        1968.78        2242.02         169.15
         127.38         947.16        1189.88       -1014.99        2300.54         235.86
         243.58         372.02         -17.22         293.39        2658.19         448.56
          37.21         372.35        -793.75        1749.82        2184.33         142.15
         299.98         160.49       -1267.22        1773.78        2582.93         413.39
         108.36         140.09       -1357.17        2418.41        2240.29         165.54
         311.33          74.25        -619.67        1605.97        2178.07          83.52
         401.13         297.77         310.05         265.56        2275.46         215.13
         149.96         398.02          32.79         187.20        2781.98         499.91
         321.17          68.62         359.99         535.70        2264.46         211.11
         336.61          97.91        -670.25        1009.67        2776.01         493.48
          15.12          61.79         336.07         883.97        2253.02         168.93
         126.29          20.60       -1135.40        2256.17        2282.31         231.85
           3.03          69.93        -844.41        2094.86        2226.56         177.53
          58.44          63.79        -573.95        1765.94        2235.76         183.77
         359.67           4.76        -709.45        1600.55        2294.44         243.42
          37.69           6.89       -1215.24        1892.61        2828.01         518.69
         137.35          12.75       -1116.94        2070.23        2446.58         346.76
          32.09         382.01       -1210.72        1961.67        2384.92         298.38
          10.05         876.06        -657.43        1075.50        2245.77         202.09
          32.28         374.90        1282.68        -573.19        2433.30         344.10
           6.09         351.20         166.40         734.28        2292.00         263.02
         171.24          57.01       -1214.98        2126.54        2410.13         313.13
         595.41         569.36        -750.66         923.73        2212.10         152.40
         328.38         526.20        -713.83        1003.42        2405.80         323.84
         258.58         132.03       -1396.48        1983.56        2572.28         403.31
         309.34         179.53       -1399.21        2200.72        2259.58         217.54
         149.47         421.26        -109.17         138.67        2949.72         563.65
         142.72         181.83        2913.84       -1921.40        2232.96         177.06
          16.30         738.81       -1284.77        1740.20        2339.42         270.05
          28.20          88.53         -86.53        1188.95        2330.82         276.30
          56.94         122.91       -1178.59        2217.57        2331.12         262.83
         423.82         197.10        -785.01        1463.21        2250.84         208.62
         253.57          28.93       -1178.07        2059.40        2386.15         315.07
          42.45          69.91        -944.87        2054.19        2328.30         261.93
         469.99         103.83       -1160.17        1651.90        2484.42         359.54
         240.31          34.39        -846.09        1770.43        2350.92         279.11
         173.62         101.42       -1471.45        2526.56        2219.82         142.39
         214.94          43.15          86.72         349.11        2856.06         525.39
         265.07         146.34       -1107.33        1537.07        2708.80         468.74
          85.42         186.21        -765.99        1653.30        2391.02         300.14
         580.62         144.21        -477.90         919.44        2383.57         307.00
          10.35         118.99       -1449.87        2691.38        2179.12         119.68
          22.71         206.85        2270.78       -1258.70        2308.32         247.08
          30.48          34.26        -279.25        1354.29        2410.18         315.80
         352.52          93.97        -643.40        1378.00        2368.87         299.65
         413.88           2.47       -1453.99        2116.22        2471.37         349.14
           1.62         154.42       -1075.47        1793.30        2676.08         450.15
         122.95         207.91         215.18         461.47        2542.45         409.23
         438.62          39.97       -1167.52        1995.48        2243.39         164.92
         717.82          13.07        -746.72        1178.49        2387.30         297.18
         285.10          21.46        1041.58        -272.34        2474.17         365.12
          95.97         226.20       -1245.20        1993.73        2479.25         363.34
         361.32         190.35         200.99         561.11        2236.18         187.80
         526.36         361.13        1789.10       -1642.30        2515.67         381.93
         333.28          76.07        -720.76        1658.12        2203.25         130.35
         281.58         310.62        -950.36        1694.84        2213.27         179.15
         113.13         110.97        -717.01        1729.41        2313.46         259.11
         340.21          11.83        -805.49        1755.07        2248.34         181.25
           6.93         310.97       -1076.40        2055.26        2253.19         195.26
          51.23          69.83       -1360.25        2439.56        2349.59         275.02
         265.49         327.10        -970.32        1500.89        2426.81         329.59
          54.37         206.91         907.41         147.24        2234.03         179.96
         397.49          12.85         100.21         839.72        2199.70         129.28
          31.29          56.81       -1248.65        2458.32        2252.16         212.39
         299.74          56.86        -934.94        1707.39        2420.92         313.89
         485.63         152.86       -1407.92        2058.16        2261.23         193.29
          29.02         100.77        -932.24        2048.48        2303.92         258.76
          67.54          37.67       -1007.28        1582.07        2869.97         534.24
         309.14           6.68        -205.80        1023.01        2416.92         326.07
         322.95         144.84       -1027.51        1552.03        2557.65         411.63
          99.59         669.31        1548.00       -1184.30        2417.33         332.26
         523.35         378.32        -922.35         989.22        2581.42         412.55
         153.57          82.47         215.56         612.26        2486.10         354.37
         432.60         512.21         268.40         -78.13        2414.87         324.09
          28.92         151.37        -323.07        1165.83        2526.91         383.42
         255.60         156.19       -1009.26        1516.10        2631.33         449.18
          13.71         193.54       -1302.18        2416.07        2228.82         188.35
          20.73         211.61        -393.16        1532.82        2177.96         150.40
         777.15           8.70        -184.72         748.86        2199.98         137.60
         465.31         129.68        -663.83        1386.94        2231.86         166.49
          52.00          78.27        -985.99        2172.84        2232.84         167.11
         301.51          23.75       -1344.44        2312.20        2256.94         205.14
         149.84         417.08       -1071.51        1279.84        2774.72         503.78
         441.08         160.72        -451.37         856.55        2542.98         410.90
          84.56         251.22        -875.90         937.86        3152.24         629.33
         507.08          14.72        1682.82        -961.72        2307.07         269.46
         281.04          78.33        -742.67        1692.60        2240.65         198.07
         381.45         140.20         337.67         390.77        2299.84         280.50
         149.10          94.76        -657.12        1498.76        2464.45         347.19
         106.00         252.44         640.05         277.95        2273.50         237.38
         248.30         227.14         148.83         723.25        2202.45         155.58
          81.56          69.38        -739.55        1303.81        2834.75         523.72
          58.24         158.47        -339.08         819.22        2853.12         535.66
         112.40         347.36       -1317.78        2114.91        2293.06         254.07
         204.97          12.66       -1212.17        1714.94        2829.58         518.88
         293.37          18.57        -768.58        1729.46        2277.14         231.40
         103.71          17.53       -1318.37        2540.77        2206.32         126.83
         406.34           7.53         933.62        -584.41        2786.88         508.91
          14.62         150.87         764.27        -543.37        3163.57         636.02
         185.94          38.89        -100.98         826.48        2599.64         421.53
          82.73         129.54       -1039.01        2029.07        2347.64         278.62
          32.90         515.12        -631.71        1179.63        2454.02         347.36
          52.13          14.21        -543.88        1515.64        2511.89         373.74
         378.54         230.02        -392.40         882.17        2451.60         355.60
          10.96          12.80        -618.81        1281.24        2863.78         524.44
         185.32           2.15        -771.40        1827.72        2306.18         238.13
         494.37         214.58       -1233.61        1746.37        2328.26         261.97
         100.38          54.59        -569.82        1691.73        2273.09         212.67
         327.40          57.07       -1300.98        2169.68        2296.78         268.23
         157.30         553.48        -723.64        1167.57        2395.26         314.56
         136.94          48.11       -1104.96        2089.60        2380.29         290.73
         223.78           4.50        -661.26        1523.40        2459.54         352.70
         280.86         124.60       -1332.79        2316.18        2161.11         107.75
         493.31          49.95        1020.46        -782.75        2768.99         503.75
          16.00          56.76        -815.68        1874.94        2417.95         312.09
          99.03           7.26       -1239.83        1615.38        3068.12         605.21
          88.99          33.42       -1033.32        1540.45        2920.39         555.27
         166.24          18.89       -1416.86        2558.39        2223.29         170.33
           9.74         152.61       -1192.88        1866.40        2714.10         472.40
         437.51          88.91       -1053.34        1437.18        2639.71         438.46
          54.55          76.21          62.57         740.70        2615.94         431.03
         166.39         499.50       -1340.82        1671.18        2553.73         397.90
         170.15         355.47        -701.25        1249.41        2476.18         353.77
          62.36         420.82        1186.60        -446.41        2326.59         250.76
          80.23           2.17        -581.72        1707.62        2341.66         274.90
          15.25         104.18        -919.49        2018.91        2331.09         284.81
          12.65          12.96        -145.82        1413.03        2257.12         176.24
           4.98          92.47       -1239.07        2339.27        2352.30         277.80
         668.36         361.58       -1147.31        1244.02        2423.31         341.85
         890.52           9.37       -1309.82        1620.87        2339.02         254.40
         207.75          31.76        -874.45        1615.31        2569.60         401.11
         217.47         422.06         179.31         450.20        2280.92         199.67
         120.09         299.49        -295.98         995.88        2430.49         327.83
          30.96         219.29       -1446.60        2356.45        2389.85         296.60
         283.31         124.81       -1296.69        1516.78        2921.75         551.56
         412.44         805.01         587.04        -492.30        2237.78         191.15
         409.45          38.10        1699.31        -952.19        2355.30         272.23
         352.24         191.59        -800.24        1277.05        2529.30         405.45
         569.46         258.56           5.14         398.18        2318.62         302.25
          29.46         134.23        -530.01        1138.05        2778.22         491.73
         623.95         457.49       -1469.26        1562.90        2374.88         306.76
         146.55          83.65        -685.66        1562.46        2442.96         335.45
          25.84         165.85       -1337.39        2245.55        2450.12         335.80
         170.19         133.85        -695.82        1569.00        2372.76         300.54
         299.40          27.69       -1471.25        2491.95        2202.17         148.60
         113.95         283.63        1868.10       -1145.32        2429.61         324.06
          95.20          54.62       -1164.06        2348.79        2215.40         181.70
         148.60         103.51         448.61         330.56        2518.69         378.66
          56.64          74.64        -457.94        1428.52        2448.11         334.83
         388.40           1.08          45.94         891.74        2222.81         157.62
         496.07          61.56        -393.24        1093.20        2292.37         242.28
           2.30         117.30         802.99         151.08        2476.30         370.25
          12.10          38.94       -1349.29        2612.40        2235.80         172.26
         282.87         251.75       -1123.10        1857.70        2280.75         220.31
         405.42          39.02        -185.60         735.68        2555.43         391.85
          19.78         549.02         792.44        -192.92        2381.66         309.26
         290.43          35.86       -1311.63        1997.65        2537.66         390.21
          81.81          65.09         155.28         809.38        2438.42         340.74
          47.03         505.08         -14.54         672.88        2339.52         246.25
         156.66         399.27        -131.54         878.79        2246.79         225.45
         374.30           6.41        -502.65        1420.12        2251.78         231.68
         699.70         147.16       -1234.29        1538.84        2398.55         315.46
         110.55         341.54       -1167.18        1874.35        2390.71         311.60
          12.97         185.61        -617.29        1592.77        2375.91         295.32
         359.80          60.79        1129.29        -895.53        2895.60         541.91
         148.67         118.32        -705.70        1354.01        2634.68         432.02
          99.85          79.34       -1321.61        2241.01        2451.38         340.51
         116.39          85.35         654.49         436.71        2257.02         231.32
         308.11         445.43       -1388.36        1761.29        2423.47         332.59
         170.96         202.58        -194.86        1056.17        2315.11         252.35
         242.72          11.69        -569.55        1522.47        2342.64         282.95
          25.84          75.27        -213.90        1438.63        2224.11         177.47
         267.41         141.31        1658.28       -1361.70        2844.65         535.83
         241.08         112.26       -1084.43        1788.19        2492.85         367.87
         399.41          74.86       -1138.62        1477.36        2736.95         479.52
          73.95         647.28        3287.17       -2862.73        2404.29         332.36
           2.58         159.18        -397.68         920.52        2865.37         532.68
         793.87          45.58       -1104.15        1543.52        2271.14         238.01
         255.14          15.28        -711.33        1107.23        2883.64         535.04
         147.14         222.80        -999.87        1510.87        2669.02         454.40
         342.09          24.55        -590.20        1396.51        2377.01         301.42
          92.34         128.64        1730.94        -580.24        2178.27         132.62
         218.34         126.63        -419.86        1360.52        2264.34         206.40
          40.43          65.20       -1003.16        2132.78        2314.70         251.34
         213.17         215.91        -623.80        1207.26        2537.43         390.90
         337.95         154.96       -1240.35        1815.75        2481.64         362.16
         672.49          60.15        -492.94         818.78        2491.48         374.56
         125.02         329.34        -680.95         995.06        2781.49         496.91
          97.85         445.41        1332.76        -550.71        2224.66         164.33
          35.67        1164.08       -1305.65        1306.68        2349.17         275.38
         233.37         467.83       -1023.70        1581.97        2290.48         230.66
        1012.93         157.76        -591.48         716.15        2254.60         198.46
          27.58          24.63        -236.68        1343.32        2391.10         301.93
          98.52         725.70        -319.58         792.02        2253.30         201.83
          99.36         385.68       -1383.86        2066.38        2382.40         308.71
          45.52          38.02        -515.06        1787.64        2193.84         131.74
         268.29         198.06       -1206.84        1947.64        2342.81         277.17
         784.45         102.60        -488.49         899.90        2251.50         178.67
         239.21         132.75        -101.07         369.09        2909.98         564.54
          90.97          44.79         561.50          45.95        2806.76         510.99
         165.53         127.31       -1004.94        2068.83        2193.23         109.54
         758.90         184.06       -1426.61        1676.17        2357.43         303.18
         419.47         724.39        -498.79         550.67        2354.24         274.19
         705.06          47.82       -1014.47        1330.15        2481.42         368.14
         613.14          82.95        -971.88        1635.71        2190.05         128.38
         844.87          34.32         252.07         229.65        2189.06         106.40
         416.62         404.37       -1187.68        1499.86        2416.79         329.28
         315.25         328.99         459.93          38.80        2407.00         321.62
         114.36         340.04       -1082.45        1918.70        2259.30         205.77
         203.60         107.92       -1420.55        2366.89        2292.09         234.49
         261.67          74.04        -682.89        1409.25        2487.88         369.17
         437.58         133.27        -213.87         830.94        2362.04         287.95
         400.35         167.11       -1120.52        1527.04        2575.96         412.94
         227.59          20.09       -1301.80        2191.07        2413.00         319.06
         406.72         214.78       -1135.59        1776.01        2288.03         256.32
         526.50         318.33        -946.52        1193.32        2458.33         343.44
         588.98         341.81       -1178.38        1469.58        2327.97         266.57
         764.47         131.70       -1146.02        1353.31        2446.51         341.51
         104.58         455.49       -1425.53        2190.19        2225.23         175.75
          34.55         600.52       -1041.14        1644.82        2311.22         252.59
         445.60          50.35       -1350.43        1864.84        2539.61         383.99
          81.30          77.60        -807.01        1501.07        2696.99         462.78
         512.84         289.27        -877.20        1271.98        2353.06         295.17
         424.18         100.85         -41.70         613.46        2453.15         338.16
          50.55         324.96        -641.26        1425.43        2390.29         305.14
           6.02          77.33        -503.53        1568.81        2401.34         300.46
         394.59          55.87        -470.37        1273.67        2296.19         235.65
          88.47          59.36        -922.58         989.94        3334.77         687.51
          99.04          74.37       -1470.83        2515.44        2331.95         302.93
          95.59          61.28       -1110.89        2200.43        2303.53         239.28
         320.30         129.38        -381.07        1052.59        2428.75         336.27
         700.06         156.53         102.93         164.77        2425.66         344.63
         185.11         209.35        -335.50        1143.47        2347.51         287.89
         591.39         304.98         675.97        -630.91        2608.53         433.40
         134.77         554.97        -788.75        1236.98        2411.99         327.50
          44.30         121.73        -633.23        1208.63        2808.53         506.42
         120.91          31.21       -1419.57        2558.37        2259.05         199.04
         156.43         188.67        -558.94        1402.97        2360.81         291.35
         340.75          48.64          87.45         776.02        2297.10         241.15
         185.24         100.81       -1134.43        2081.68        2316.66         252.02
         120.02         545.61        -354.57         730.09        2508.77         395.42
         156.17          67.09        -125.49        1218.74        2233.46         177.88
         992.22         106.14         342.30         -71.74        2181.04          93.77
          30.64         343.87       -1229.98        1836.03        2569.41         407.80
          83.20         173.48         500.93         580.61        2211.75         166.47
         188.04          52.49         153.37         875.34        2280.72         218.23
          38.55          96.57         -21.42         849.37        2586.89         411.40
         109.10           0.24        1106.80        -157.24        2491.07         364.63
         831.14          71.40        -727.39         795.26        2579.55         395.12
          91.04          34.30       -1329.65        1999.83        2754.46         487.74
         637.82          12.81        -519.88         954.64        2464.55         347.62
         450.19         411.14       -1286.09        1628.80        2345.91         280.85
         587.07         264.56        -694.07        1062.01        2330.40         278.71
          63.63           5.31        -159.43         779.10        2861.36         537.65
         449.02         122.43       -1291.89        1790.67        2479.73         363.09
         637.97         251.66         -82.63         522.37        2220.58         172.58
          49.35          74.48       -1098.94        2079.25        2445.82         341.37
         633.65          32.66       -1111.40        1711.82        2283.22         220.77
          80.32          57.56       -1047.40        1502.52        2956.95         575.62
         275.78         540.29        2353.81       -1840.36        2220.45         203.96
         188.48           8.27       -1248.32        2126.84        2474.69         355.78
          54.10          73.64       -1290.71        2110.33        2602.61         427.39
         275.64          14.46       -1157.26        2074.31        2342.80         280.38
         539.19         211.92        -336.26         637.30        2497.83         376.45
           3.27         673.32         738.41        -113.59        2248.54         202.32
         492.88          19.38       -1135.12        1323.28        2849.53         530.85
          42.76          14.90        -729.09        1878.00        2343.42         263.92
         173.07         155.16         369.51         430.71        2421.50         336.17
         107.19         106.17       -1279.27        1759.81        2856.05         528.28
         381.39         154.72       -1396.60        2179.27        2231.21         194.36
         443.90         342.92        -293.36         790.35        2266.15         219.71
           1.01          31.82        -856.98        1999.29        2374.83         292.59
         637.93         214.33        -731.72        1028.93        2400.47         319.40
         679.36          13.10        -788.76        1116.54        2529.71         386.11
          59.90          32.82       -1460.33        2420.46        2497.13         366.37
          67.59          13.12       -1172.06        2073.77        2567.56         421.60
         244.18          52.78        -163.29         939.13        2477.17         375.93
         417.30          20.46        -439.76        1266.57        2285.40         221.15
         268.86         153.30         407.33         396.62        2323.88         273.32
         228.81         226.65       -1185.16        1961.66        2318.01         265.61
         127.41         134.24        1001.29          80.92        2206.13         128.98
          48.71         525.49       -1342.96        1492.51        2826.22         513.30
         619.73         427.90       -1106.27        1392.51        2216.09         176.09
          77.20         106.68       -1344.38        2099.91        2610.54         430.42
         411.55         504.37        -709.76         980.51        2363.28         299.02
         215.22         347.14       -1108.64        1719.68        2376.55         316.63
         415.37         297.12       -1036.04        1061.21        2812.28         512.89
          28.91         136.84         189.85         452.20        2742.15         481.57
         450.13          53.47        -465.02        1281.37        2230.01         178.60
         254.06         148.09         545.20         330.54        2272.09         229.08
         335.10         370.70        -861.84        1464.68        2241.33         183.14
         166.47         248.23         216.75          79.90        2838.61         516.51
         407.75         210.29       -1300.09        1520.60        2711.40         478.51
         388.57          20.12        -393.88        1319.22        2215.96         178.25
          45.43         275.25        -984.38        1426.87        2786.80         507.82
         159.30         491.26        -973.61        1645.20        2227.80         184.59
          77.60         633.37       -1026.50        1349.70        2515.79         384.10
         371.25         122.87         293.52          67.81        2694.51         478.05
         170.42          73.29       -1125.32        2120.91        2310.67         247.83
         526.17         292.04       -1121.43        1510.46        2342.71         272.59
         260.66          69.61        -582.21        1354.16        2447.75         331.97
         587.01         203.94         -83.37         504.25        2338.12         274.12
           2.30         168.90       -1124.01        1942.75        2560.03         409.87
         206.67          15.02         916.04         168.89        2243.35         191.66
         320.34         130.01         360.40         555.83        2183.37         119.10
          69.84         569.56        -285.46         878.51        2317.52         252.12
          65.04          16.11        -705.77        1669.68        2504.92         367.65
        1032.76           4.93       -1318.78        1403.92        2427.11         333.12
         317.76         594.25          45.95         338.61        2253.38         195.23
          86.35         114.30         203.77         894.96        2250.57         204.85
         997.86          62.51        -720.63         737.18        2473.05         352.91
         644.45         130.45       -1097.00        1203.24        2668.82         454.89
          85.54         224.47        -673.67        1703.79        2209.84         151.09
         684.88         120.30         832.47        -419.29        2331.60         262.52
         363.83         449.51       -1374.23        1736.72        2374.14         293.35
         677.29         104.00         417.32          80.50        2270.84         224.67
          10.02         154.30        -161.39        1103.42        2443.60         331.05
         183.99          14.14         699.69         393.03        2259.13         215.93
         135.32          70.12         265.55         729.59        2349.39         292.07
         163.52          78.42         622.36         415.92        2269.75         272.35
          83.65         302.86        1628.09       -1147.58        2682.94         461.20
          94.55          39.25        1596.20        -989.32        2809.29         504.93
         324.73         188.57        -298.34        1001.66        2333.35         268.50
         410.69         169.55       -1421.40        1972.44        2418.69         311.78
         114.82          82.24        -298.79        1366.26        2285.43         225.57
         681.81          48.39       -1128.17        1742.57        2205.34         160.72
           5.21         204.75       -1145.24        2048.73        2436.52         344.74
          35.55          72.34         784.41         181.96        2475.71         347.53
         149.67         197.79         971.82        -190.14        2420.81         320.79
         333.70         194.17       -1122.82        1756.75        2388.15         303.71
        1075.85         133.15       -1265.74        1418.50        2188.20         107.98
          58.27          10.95       -1265.66        2348.71        2397.69         306.75
          59.89          25.23       -1403.34        2684.58        2183.62          75.07
          66.06          39.01       -1263.27        2318.90        2389.26         305.67
          44.40           3.44       -1056.87        2138.74        2420.25         321.90
         457.56         105.98        -795.37        1325.17        2456.61         350.82
         854.37         132.48       -1086.03        1454.08        2195.06         141.44
         105.91          63.77        -204.68        1177.09        2407.86         312.29
         248.62         113.55        -490.06        1192.26        2485.59         390.61
          78.45         185.53        -771.02        1357.62        2699.40         467.66
         235.03         244.05       -1240.28        2050.99        2260.19         190.83
         110.36         645.46         448.19        -349.19        2695.13         468.99
         107.78          25.60        -631.46        1830.22        2217.80         144.33
         388.13          96.86        -848.97         924.25        2989.70         578.32
         116.77          40.99        -875.91        1988.87        2279.26         209.13
         823.41         184.32         479.01        -201.52        2264.73         237.52
          89.05         124.46       -1142.92        1720.06        2759.31         492.02
         443.80         161.62       -1353.75        1988.44        2309.84         232.81
          59.25          82.07       -1400.83        2457.49        2351.98         297.56
          98.85          17.83        -918.40        1869.34        2482.33         360.44
         150.86          17.84        -920.68        1707.71        2594.23         415.96
         380.85         182.86        -882.27        1586.48        2282.04         255.97
          17.54         167.28        -181.17         593.79        2952.52         568.14
           0.37          86.33       -1070.74        2348.82        2185.20         130.18
         187.98         173.86        -970.25        1754.78        2403.57         323.92
          19.90          29.76         461.44         756.67        2282.20         243.21
          38.77          34.18       -1374.16        2074.20        2776.97         507.23
          18.71           5.09        -990.82        2348.56        2168.41         119.08
         120.70          54.31        -297.39        1220.40        2451.94         338.51
          51.15         482.06         264.07         431.85        2320.81         298.19
         250.55          61.02        -882.24        1906.40        2214.24         169.87
         368.70          42.52       -1371.99        2149.66        2361.08         297.66
          89.98         327.87        -950.67        1799.84        2282.94         219.87
          52.10          25.27        -765.98        1957.16        2281.41         212.79
         362.84         258.49          60.55          28.80        2839.29         523.54
           8.68          88.99         894.22          44.91        2513.16         376.48
         147.90         211.45       -1038.72        1976.03        2253.28         213.74
         285.66         139.23        1708.11        -969.00        2385.96         305.57
           5.69         176.64        1159.58        -156.76        2364.83         303.38
         208.83          60.35        -212.95        1123.75        2369.99         302.94
          70.08         170.09        -114.79        1208.91        2215.67         153.97
         120.87         177.66        -449.00        1134.09        2566.34         417.91
         117.74          40.61        -480.23        1669.37        2202.48         165.45
          93.40          54.46        -258.36        1465.84        2194.65         136.91
         178.25         122.97       -1260.17        2162.69        2346.22         268.78
         110.24         227.26       -1437.77        1554.94        3095.27         619.03
         212.76          91.35       -1427.00        1855.19        2817.65         517.12
          67.56           0.52         158.92         682.76        2640.22         437.36
         364.19         302.79        -807.31        1416.17        2274.11         218.74
          86.32         186.24       -1361.49        2343.66        2295.23         234.56
         375.98         349.82       -1399.26        1581.07        2642.36         430.57
         180.98           5.94        -874.57        1911.77        2325.84         272.40
         594.82          29.82       -1150.69        1386.04        2689.97         463.16
         324.09           4.38        -406.31        1428.02        2199.78         134.79
           1.64          81.44        -333.02        1451.66        2348.25         266.08
         305.86         139.72        -883.32        1597.61        2390.10         312.19
         582.43         247.01        -723.27        1239.11        2204.70         151.20
          25.06         239.40        -979.87        1760.68        2504.67         385.97
         467.99          59.86        -137.89         873.54        2286.45         213.84
          47.59           2.28         671.84         -39.71        2867.98         534.23
         416.78          48.15        -674.35        1166.10        2593.30         434.08
         172.93          77.82       -1238.83        2146.32        2391.72         296.15
         147.20          99.47       -1038.09        1800.31        2541.06         400.82
          17.10          74.90       -1437.42        2704.88        2190.51         128.80
         109.51         980.24       -1000.86        1170.30        2290.75         242.80
         309.67          85.14       -1143.25        1969.45        2328.96         253.73
         218.41         531.38        -451.62         935.69        2316.10         250.76
          88.70         833.52       -1186.00        1416.95        2396.78         316.99
         135.96          14.23        -441.36        1396.28        2444.83         348.29
         119.88          92.75         255.37         481.38        2600.57         426.57
         111.31          66.09        -298.25        1177.35        2493.46         357.09
         304.85         110.09        -867.22        1585.10        2417.14         316.08
          75.40          62.54        -697.54        1598.94        2510.62         375.46
          28.58         160.44        -302.54        1335.67        2327.81         262.72
         210.71         102.49        -279.87        1249.81        2266.81         214.73
         587.26         260.54        -823.17        1285.60        2239.72         194.41
          68.46         188.09        -747.28        1771.77        2268.92         203.36
          18.37         273.96        -705.66        1293.95        2669.35         447.28
         540.95           9.35        -135.15         252.41        2882.40         540.96
         145.47         239.33       -1070.20        1572.69        2662.64         459.25
         207.00           3.00       -1362.52        2400.42        2302.08         242.34
         459.59         100.83        -848.04        1507.85        2329.75         259.34
         272.84         358.95        -276.80         851.98        2342.98         275.59
         555.84          30.91       -1196.61        1885.27        2274.56         188.06
        1011.86          75.80          33.87          16.59        2411.82         308.93
         161.23          42.13         583.11         352.47        2411.02         323.00
         336.24         191.08       -1095.13        1786.23        2331.55         294.76
         150.77         373.61         744.52        -180.00        2461.07         351.86
         161.46          28.93         613.31         358.10        2388.17         322.98
         480.18         273.80        1058.89        -822.75        2559.84         398.34
           3.29         141.35         174.20        1030.74        2200.38         144.36
         198.36          15.98        -757.23        1695.82        2397.04         311.52
          94.97         175.73        1972.41        -904.29        2211.15         162.43
         462.45         159.47        -919.70        1117.48        2730.26         483.83
         416.13           3.64       -1309.96        1982.32        2457.83         348.42
          81.52         186.76       -1423.64        2173.77        2531.56         394.04
         703.28         144.07         399.58        -180.76        2483.79         370.08
         508.60           1.94        1976.50       -1448.68        2511.59         377.63
        1035.62          89.51       -1017.20        1182.27        2259.75         201.29
         347.78         182.55         152.87         572.98        2293.77         252.12
          53.80         281.53         662.01         -93.95        2646.58         440.60
         506.23         124.19        -970.50        1593.97        2296.08         284.13
         217.89         380.78       -1082.47        1821.95        2211.81         179.49
          33.39         507.80        -849.12        1356.19        2501.69         376.33
          58.52          73.10        -780.60        1970.28        2228.67         151.69
         187.86         148.28        1640.89        -799.79        2372.73         296.02
          15.12         105.56        -102.34        1030.32        2501.30         371.69
          30.72         204.56        -436.80        1512.12        2239.36         194.64
         107.65          33.30       -1151.78        2035.46        2525.31         391.82
         117.33          85.61       -1114.52        2241.90        2219.65         148.09
         186.95           5.68        -418.40        1514.11        2261.61         211.12
          89.48         149.78       -1069.49        1913.13        2467.06         346.19
          85.63         216.35        2724.48       -1785.01        2308.49         259.88
         194.74         328.85       -1277.58        1952.37        2351.56         274.79
         105.05         174.72         -60.84        1051.75        2279.31         202.50
         508.88          37.66        -640.20        1455.25        2188.38         125.67
          75.51         222.67       -1141.30        2001.18        2391.89         312.49
         590.27          53.10         231.51         309.65        2365.45         298.14
         186.13          14.83       -1223.56        2353.40        2219.15         179.20
         191.79          31.00        -526.44        1593.18        2260.44         205.80
         759.13          32.64         432.54        -100.51        2426.17         323.01
          20.12         137.62         -59.73        1170.98        2280.98         215.79
         248.45         241.66        -167.92         714.39        2513.38         380.31
         159.70         666.82        1802.48       -1356.36        2277.32         224.78
         393.87         299.82        1700.84       -1048.73        2204.18         161.61
          19.64          19.83        2469.32       -1262.38        2303.56         225.49
         125.27         124.43        -183.42        1231.50        2252.18         227.35
           4.12         306.15       -1330.01        2309.50        2260.19         214.88
         522.70         211.10        -424.09         998.25        2242.01         229.45
          29.73          84.50        -228.64        1315.26        2349.08         293.70
          17.87         196.92        -864.82        1951.08        2248.90         193.37
         139.99         189.03        -486.43        1496.04        2211.33         164.97
         387.63         100.06       -1398.27        2259.15        2201.40         138.73
          68.79         161.80       -1229.06        2201.26        2347.17         274.86
          82.59          52.96       -1243.58        2006.66        2651.33         438.45
         757.73         187.49        -546.27         820.11        2330.90         267.07
         442.85          13.80        1218.17        -329.27        2204.40         156.11
          15.23          22.24       -1292.52        2337.77        2467.22         350.35
         326.39          65.54        -297.94         960.42        2495.56         372.71
         200.13         201.25        -782.16        1599.14        2331.59         274.50
          31.22          18.39       -1342.43        2667.68        2175.09          92.98
         105.70          68.55         -79.64        1157.00        2298.35         247.09
          78.78         160.73        -548.49         992.43        2866.51         526.07
         872.24         316.54         296.59        -238.32        2302.90         248.82
         240.62          31.32        -219.12        1255.93        2241.23         160.12
         289.07         216.80        -839.70        1259.80        2624.01         427.87
         438.78          65.71        -348.79        1128.83        2265.43         217.17
         317.60         244.11       -1145.02        1784.39        2348.88         261.72
         151.95          40.55        -840.36        1901.70        2296.13         233.01
         172.19          93.73         174.90         804.99        2304.15         245.15
         499.88          35.93       -1265.50        1918.91        2360.74         288.79
           5.35         183.99       -1362.98        2545.34        2178.25         141.73
         771.40         170.51        1021.79        -792.31        2378.58         306.74
         374.70          50.81       -1469.84        1851.33        2742.97         482.93
           5.00          11.95       -1297.54        2244.40        2586.15         404.06
         194.96          18.05        -261.07        1383.15        2214.88         146.69
          47.96          57.90        -217.10        1277.39        2383.82         301.42
         405.28         162.86        -988.92        1643.90        2326.84         259.45
          44.61          11.68         715.70        -344.38        3122.35         624.80
         195.50         116.55        -476.72        1394.04        2320.61         262.95
          62.09          36.82         674.69         600.75        2175.60          98.19
         192.02         173.87        -826.88        1299.31        2711.63         472.32
         304.77          11.53        -765.76        1541.96        2457.45         363.57
         529.62          87.82       -1454.49        2104.37        2282.63         230.93
          93.32          31.10        -787.69        1842.88        2370.35         294.40
         256.20          56.59       -1470.68        2064.02        2643.84         447.73
         314.19          63.62       -1196.23        1967.35        2401.01         314.89
         106.30           3.95        -966.26        2211.22        2194.75         133.68
          69.43          15.11        -136.86        1166.95        2435.35         340.23
         376.30           1.28        -105.94        1052.00        2226.32         123.12
          51.29         503.10         -15.18         756.11        2254.64         223.45
         436.41         203.81         150.97         100.17        2658.61         463.59
         243.22         347.53        -198.25         710.27        2447.19         349.58
         294.47          95.30        -497.72        1282.63        2375.27         296.76
         165.25         127.19         129.70         817.98        2309.84         239.80
          11.65         272.77        -524.47        1467.27        2322.76         259.49
          85.98         101.66        -530.87        1330.99        2562.20         407.76
         110.55         517.06        1596.72        -986.00        2311.64         220.78
         327.83         155.11        -405.59         815.05        2657.58         440.72
          67.99         161.12       -1183.32        2156.22        2347.95         279.87
         150.33          42.05        -175.72        1370.85        2162.46          64.33
          31.33        1008.29        -723.95         989.96        2244.31         196.13
         127.83         305.50       -1322.63        2091.15        2348.10         286.46
         548.97          11.74       -1327.17        2046.31        2270.11         213.20
          78.16          89.83        -785.46        1644.96        2522.47         380.51
         186.99         393.75       -1049.07        1688.35        2329.93         257.69
           4.37          30.94        -229.95        1226.24        2518.34         379.55
         133.36         101.31         -72.45        1086.89        2300.87         249.33
         284.24           0.65         201.80         728.69        2334.58         284.75
          49.18          14.21         141.91        1123.30        2221.37         188.93
         195.93           2.91       -1160.56        1808.92        2702.76         467.53
         437.01         112.80        -535.97        1170.28        2365.84         295.89
         245.31          63.11        -279.15        1164.90        2355.79         283.78
         185.02         108.22        -106.90         500.69        2862.92         537.52
         304.78         154.71       -1342.58        2259.00        2174.04         125.20
         177.38           4.34         -89.38        1172.62        2285.01         218.96
         112.15         490.70       -1326.70        2031.37        2242.44         174.06
         100.63         232.06        -835.75        1641.21        2411.80         333.33
          39.91          24.80        -271.28        1574.33        2182.20          86.94
         117.18         226.14        -585.52        1095.53        2696.62         466.95
         377.68         422.13         217.30         218.20        2314.66         268.37
           8.36         476.31        -914.71        1695.15        2284.86         220.16
         142.01         310.14         606.00        -209.19        2700.99         470.31
         196.35          20.88       -1263.73        1817.16        2779.31         497.04
         239.32         155.97        -983.03        1677.79        2459.93         344.22
          17.96           5.10        -528.99        1814.88        2240.99         182.33
         503.66         213.66       -1354.09        1944.41        2242.34         189.46
          62.14         261.66        -377.28        1205.61        2397.83         319.98
         190.36         610.16        -350.90         754.94        2345.40         302.27
          31.07          77.33        -711.66        1931.05        2222.16         175.98
          77.26          17.59       -1207.79        2444.87        2218.02         181.51
         133.83           3.20       -1019.85        2046.47        2386.29         303.75
         226.71           3.07       -1027.91        2112.49        2235.61         167.71
         162.05         386.80       -1160.44        1230.98        2930.57         557.90
         219.01         351.30         145.73         489.94        2343.98         276.17
         390.51         157.16       -1389.11        1620.36        2771.04         494.68
         949.08          28.30       -1435.02        1761.76        2245.84         196.63
         507.57         131.65        -404.99         902.45        2413.26         322.69
         126.84         206.64       -1376.33        2033.07        2559.74         392.87
         553.42         315.11        -621.65        1085.79        2217.29         192.43
         225.18         238.02         423.44         463.65        2199.68         174.45
         170.75         131.35        2070.26       -1091.00        2268.61         202.17
          32.35         199.58       -1366.94        2058.04        2626.93         431.91
           7.29         186.47       -1067.33        1867.60        2555.92         398.59
           2.35         352.49         956.98        -717.38        2955.53         559.61
          76.27         469.33        -393.95        1036.55        2361.76         298.41
         973.43         280.93        -800.96         861.15        2235.41         188.09
         363.91          34.86       -1483.07        2287.14        2347.12         254.72
          75.35         188.69       -1021.60        2057.56        2249.96         207.46
          53.23         135.24         -91.58         725.61        2727.46         476.41
         868.90          63.20       -1023.82        1385.00        2256.68         202.03
          97.94          29.56       -1039.81        2003.99        2458.27         344.67
          91.74         112.80        -397.02        1437.21        2305.24         243.63
         209.70         475.51       -1082.15        1715.40        2231.49         187.26
         299.62          12.38        1275.33       -1157.53        3120.18         633.97
         373.12         190.48        -430.54         817.35        2599.55         418.98
         275.28         555.50       -1203.75        1713.64        2209.29         149.98
         194.25         100.05       -1160.33        2129.43        2286.56         229.75
         146.64          82.45       -1224.65        2255.00        2290.50         231.12
         262.97         146.42         486.52         348.99        2305.05         244.13
         708.90         102.18        -644.05         883.96        2498.99         362.12
         210.56          18.31        -210.71        1253.67        2278.15         207.99
         167.20          58.94         256.21         645.58        2422.03         349.07
         190.18         105.33        -660.76        1481.01        2434.19         329.23
          80.09          93.97          85.69        1083.40        2206.80         147.89
         216.34          93.03         459.74         460.49        2320.37         250.43
         177.05          78.70       -1269.96        1905.46        2658.72         463.21
         482.32          94.10       -1263.89        1843.09        2394.34         319.81
         139.48         236.60          -2.98         122.59        3054.26         607.23
         499.34         124.15          60.73         340.64        2525.11         399.87
         112.92         205.90         423.96          29.14        2778.02         497.56
         267.46          81.59        -790.78        1600.77        2390.92         303.79
         261.54         127.18        -967.57        1760.34        2368.46         297.05
          60.22         132.85       -1331.93        2421.48        2267.35         225.38
         673.07         175.61        -868.94        1272.99        2297.21         236.36
         512.41         207.55         129.56         117.08        2583.36         427.56
          34.34          30.52        -331.74        1401.38        2415.44         337.93
         532.24         113.63       -1355.06        2051.95        2207.18         137.38
         489.09         175.01       -1352.47        1728.23        2510.09         380.48
         487.42         160.00        -591.83        1204.39        2289.97         236.17
         930.04          39.18       -1284.55        1629.94        2235.36         179.46
           3.59          53.21        -314.01        1234.47        2572.69         405.59
         416.95         177.61        -285.02         614.21        2626.22         424.77
          85.55          42.78        -430.80        1637.32        2215.12         160.43
         189.09          59.67        -280.93         925.37        2656.76         446.36
         218.53          78.67        -559.37        1439.97        2372.15         309.06
          38.08         317.89        -621.93        1440.92        2375.01         300.79
         478.50          16.39       -1401.32        2114.19        2342.20         251.39
          17.32           8.96       -1080.65        2314.02        2290.33         230.30
         108.13         253.12         125.74         137.26        2925.70         556.18
         186.98          36.41       -1109.81        1987.74        2448.65         346.11
           5.54         171.02        3379.50       -2203.45        2197.37         153.56
         113.13         108.58        -856.62        1947.45        2237.43         180.10
          85.23          88.45        -351.67        1133.98        2593.97         413.81
          14.05         144.46       -1083.13        1907.71        2566.87         412.72
          85.93         467.31       -1377.62        2073.39        2300.93         236.71
         127.64          68.70       -1096.91        1579.51        2870.99         541.28
         218.30         298.39       -1185.53        1541.49        2677.31         465.79
         107.62         205.29        1119.65        -672.13        2789.54         512.77
          37.23         189.86         301.32         558.82        2462.73         340.25
        1005.25          55.72        1319.11       -1037.07        2206.93         182.25
         250.32          60.84       -1253.63        2245.99        2246.45         169.60
          67.10           4.77       -1276.45        2576.81        2177.74         100.79
          11.26         144.13        -390.15        1633.62        2151.11          98.97
         149.25         170.61        -676.05        1659.96        2246.18         186.32
         247.33         152.09        -911.56        1776.90        2285.21         227.17
         173.77           3.79       -1249.30        2409.21        2212.47         159.82
         278.57         226.84       -1309.46        1951.98        2402.02         320.14
         283.77          43.56        1504.43        -607.17        2325.38         251.32
         413.58         262.92        1599.24       -1058.57        2332.78         280.19
         394.30          23.10         -67.16         923.77        2275.96         228.18
         279.87         334.62       -1278.83        1716.01        2498.26         370.60
         619.42         168.65        -758.62        1213.07        2307.46         243.03
          33.53         690.92       -1415.30        1943.45        2297.36         255.59
         314.24          70.03        -395.36         716.11        2844.94         527.47
         256.42         115.04       -1433.59        2271.56        2340.54         271.05
          39.11           5.62         735.64         536.34        2233.26         201.32
         751.49         305.14        -416.42         490.77        2418.98         328.31
           4.76         102.93       -1228.27        1577.79        3092.75         618.83
          40.56          18.20       -1479.88        2641.46        2329.62         262.19
          75.52          66.20        -992.97        1789.36        2611.86         430.47
          87.78          53.34        1267.09        -162.00        2303.74         255.13
         135.90           6.83       -1299.43        2230.43        2476.25         355.14
          96.05           3.08       -1303.24        2090.18        2663.89         452.93
         110.25         325.35       -1372.97        1650.49        2836.83         525.48
          84.76         138.59        -747.14        1118.44        2955.32         569.04
         189.50         277.49        -973.77        1843.54        2213.19         116.61
         307.49         223.89        -480.78        1228.70        2270.67         236.12
         615.95          32.39       -1148.12        1807.14        2242.60         207.21
          94.54         113.74        3420.56       -2263.71        2184.85         133.75
          90.71           9.17       -1427.08        2575.64        2301.52         254.72
          18.30          39.15        -683.85        1927.53        2248.81         194.77
         475.41         116.22          19.20         462.13        2477.01         370.51
         170.52         215.89        -895.33        1802.23        2256.67         194.80
           1.93         131.52       -1317.21        2388.20        2345.53         270.09
         247.69          26.30        -950.11        1436.77        2789.31         503.97
          68.98         175.95        -238.92         938.96        2604.99         414.28
         166.14         475.19         690.08        -281.20        2499.74         378.31
          36.88         319.74       -1126.48        1948.28        2371.55         296.35
         280.84          59.12       -1451.32        2311.48        2349.82         275.43
          82.11         235.80        -580.87        1568.19        2244.75         177.74
          89.50          86.92        -594.48        1733.90        2234.10         176.49
          84.09         282.18       -1368.71        2326.68        2225.70         164.49
          69.60         158.49        -813.91        1798.76        2337.04         274.30
         423.38         104.58        -825.23         991.82        2855.43         522.27
         186.46         888.95        -344.50         571.76        2247.29         204.51
         272.97          10.17        -893.35        1861.26        2298.89         236.51
          60.15          18.64         248.78         665.70        2556.69         387.57
         201.10          79.00        -293.99         696.25        2867.60         534.76
          25.22         161.41       -1288.97        2109.46        2542.85         402.49
          95.13         254.13        -893.11        1683.07        2410.74         337.80
          25.39         126.14       -1291.15        2239.82        2449.76         353.07
          41.22         483.54        -983.96        1662.09        2347.08         273.49
           4.11         106.08        1373.85        -186.13        2252.06         172.50
          80.48         307.42       -1390.14        1623.99        2928.22         547.05
         137.19         322.28       -1241.22        2008.13        2323.57         268.45
         130.33         202.35        -223.41         585.13        2855.56         534.85
         298.82         108.01        -773.11        1737.08        2179.14         126.48
         110.39          96.75       -1247.16        2326.67        2263.31         228.85
         383.56         104.12       -1077.79        1771.37        2368.70         290.27
         195.29           0.89       -1338.44        2379.59        2312.63         257.06
           7.56          38.58        -561.12        1642.05        2422.91         314.24
         403.69          58.67        -666.12         806.07        2947.65         564.04
          55.92         130.24        -208.02        1166.58        2405.24         310.02
         355.55          65.54        -450.10         804.24        2774.73         507.45
         243.52          36.21         894.24          53.38        2322.60         275.56
         136.97         600.76       -1195.88        1453.64        2554.47         407.87
          84.26         179.81       -1087.19        1902.77        2470.31         341.18
           6.75          94.63         119.18        1038.87        2290.54         235.63
         322.44         107.18         222.76         544.98        2352.62         297.15
         263.05          84.92         964.75        -267.84        2505.07         371.54
          55.06          34.77       -1338.89        2190.35        2608.67         435.59
         102.80          29.81        -414.15        1564.93        2266.58         212.56
          19.30         108.92       -1362.66        2336.77        2447.62         348.38
         171.35          60.61        -810.05        1927.30        2200.75         122.16
         296.21           1.22       -1133.34        1800.29        2585.57         407.75
          82.92         150.29        -997.55        1907.60        2406.69         296.58
         124.67          88.32        1005.53        -333.58        2665.00         462.86
         277.97         335.14        -841.44        1406.93        2371.38         289.26
          51.42          50.14         607.02         483.98        2357.37         309.70
          87.65          66.86         539.24         630.68        2225.55         202.20
         657.67         179.29        -876.16        1126.69        2462.48         356.17
         364.55         137.79        2043.63       -1318.17        2322.17         265.76
          46.15         227.27        -658.94        1600.40        2335.09         259.52
         181.07         176.44        -481.60        1067.89        2606.17         416.61
         133.92         193.94         511.12        -225.78        2936.79         556.30
         261.43         200.99        -201.32         981.33        2307.52         253.35
          80.59         838.57        1174.63        -991.40        2447.58         346.84
         478.06          13.98        -962.92        1833.62        2187.21          87.87
          63.44         305.47        -653.49        1477.95        2356.60         281.44
          37.06          83.39         492.80         418.81        2517.89         381.17
          57.28         138.54        -579.70        1665.15        2268.69         223.81
          60.83         442.66       -1350.06        1519.68        2876.86         536.97
         365.69         111.45       -1227.32        1916.94        2383.21         297.48
          63.83          65.49          93.25         871.13        2456.24         360.41
         127.40          66.29       -1428.96        2492.11        2293.12         240.06
         217.03         475.14        -788.21        1405.02        2241.01         180.73
         205.23         117.90        -185.19        1023.77        2388.25         323.78
         127.08          37.90        -389.88        1307.07        2467.78         356.45
          86.04         138.10       -1477.17        2571.48        2231.50         181.17
         432.11           5.64        -713.65        1640.27        2185.60          96.84
         233.10         126.81        1156.52        -601.27        2634.79         434.18
         166.06          29.90       -1306.65        2392.06        2268.59         224.22
          53.40           9.56       -1030.72        2293.60        2224.10         161.45
         204.62         109.04         142.50         178.52        2915.29         559.50
         142.33          17.57        -451.71        1624.26        2217.50         174.17
         140.47         316.34       -1429.65        1849.00        2673.81         457.40
         224.70           7.85        -390.96        1211.04        2497.36         357.74
         115.83          18.40         382.31         767.53        2265.90         216.96
         688.67          70.97       -1455.81        1750.75        2495.38         369.82
          23.45         290.58       -1175.39        2059.19        2352.12         284.15
          20.10          19.86         908.57         209.38        2392.04         314.24
         111.91         330.39       -1017.79        1276.82        2848.62         536.31
          26.48         506.01        -979.22        1659.09        2337.62         272.30
          74.36         172.11        -478.67        1519.74        2262.42         223.67
         449.88          79.52        -794.62        1193.60        2621.56         432.60
         261.34           0.87         129.97         759.63        2398.15         312.98
          45.85          34.73        -376.96        1237.62        2608.72         423.26
         230.98         632.56       -1375.55        1813.90        2248.06         207.48
         385.36          26.01        -931.73        1882.72        2187.60          96.84
          79.77         573.95        -263.67         422.84        2737.07         486.73
         150.04           5.80       -1231.85        1838.52        2787.46         500.88
         347.32         326.59         707.36        -392.42        2561.10         401.49
          59.86         165.96        1310.05        -335.84        2349.95         280.71
          16.41         273.70        -736.84        1147.85        2848.84         525.31
         341.34           9.42        -661.72        1541.15        2319.76         258.86
         654.99         127.80        1205.39        -792.37        2354.16         298.51
          26.57         603.66        -180.10         543.27        2556.55         387.65
         188.11           8.69       -1389.99        2453.97        2289.17         231.18
          78.18          46.15       -1253.33        2339.65        2339.32         270.50
         324.30          41.83         520.28         467.94        2195.60         150.88
         129.83         290.28        -857.69        1407.00        2580.55         409.23
         230.20          45.78        -480.49        1479.67        2274.80         205.07
         780.12         106.13        -834.79        1073.90        2424.60         330.26
         137.42         226.04        -350.95        1268.66        2268.79         206.97
          56.43          93.91        -380.99         944.23        2836.38         516.44
          24.02          77.72        -896.23        1677.71        2666.73         450.40
         116.40         493.46       -1442.41        2117.89        2264.61         196.56
         188.70          19.32       -1160.68        2050.92        2451.72         353.60
          90.76          29.53       -1156.42        2344.40        2241.71         182.05
         160.33         152.92       -1345.17        2251.94        2329.94         255.31
          76.87          25.70       -1068.53        2141.22        2374.68         291.13
         429.98         546.35        -507.46         782.59        2298.50         238.79
         218.11          27.39       -1345.17        2270.56        2379.08         299.94
         271.22          36.70        -909.76        1534.10        2617.68         444.33
          72.37         198.11          32.60         820.05        2426.84         318.43
          10.54         457.54        -916.04        1618.96        2378.94         311.11
          42.65         111.65        1822.60        -737.02        2310.09         243.64
         173.43          67.39         621.64          33.55        2653.95         448.66
         159.04         144.32        1195.04        -920.38        2971.93         568.38
         229.92         202.81        -981.76        1044.70        3054.27         601.32
          83.20         109.95        1198.67        -164.45        2322.58         277.67
         492.51          50.25        -953.55        1672.37        2288.38         224.12
         255.47          88.88        -303.53         327.94        3181.20         637.52
         147.58         299.21        -232.06         890.60        2444.65         341.30
         226.00         194.87       -1396.06        2320.45        2204.71         154.34
         706.74          11.58       -1031.67        1375.89        2487.42         361.22
          77.91          64.98       -1140.66        2261.58        2286.16         236.67
          94.10          14.51       -1423.34        2588.57        2276.12         221.15
          41.49         118.79       -1259.65        2188.74        2460.60         354.97
         355.37           9.05         369.59         516.73        2299.22         261.59
         218.12         378.78        1559.06        -915.99        2309.99         249.67
         239.47         441.54        -883.31        1218.41        2533.86         387.07
         494.35         125.01       -1026.83        1609.32        2348.11         292.22
         441.05         320.81        -453.04         652.10        2589.02         423.25
          69.26         710.22       -1237.75        1749.88        2258.33         195.69
         210.78         628.43        1126.17        -938.85        2523.42         395.46
          50.55         225.86        -403.26         894.01        2782.78         499.58
         344.81          12.41        -457.92         905.93        2744.73         471.78
         453.53          72.58        -601.92        1222.07        2403.68         330.88
         600.20         196.73        1120.28        -898.98        2531.73         390.76
         230.62         346.09        -252.29        1038.43        2187.12         102.40
         616.74         587.44        -910.23        1072.13        2183.88         146.80
          14.82         186.10         525.84         602.45        2220.75         191.46
         442.83         404.37        1368.70        -928.71        2262.77         207.77
          66.08          69.50         333.22         901.25        2179.91         110.93
         114.85         134.17        -816.96        1602.94        2514.96         372.56
         136.14          18.34       -1404.62        2559.90        2240.19         183.23
          37.50         296.57        -977.19        2010.62        2182.48          99.92
         241.16         153.48         -83.92         975.80        2263.42         203.39
         137.22         559.24        -839.20        1170.21        2522.49         395.00
         392.24         220.96       -1288.20        1307.13        2917.82         557.48
         657.99          89.63        -292.65         601.77        2493.22         373.10
         130.75          40.07         304.59         837.60        2236.97         191.63
         244.37          29.81       -1045.99        1935.93        2385.84         306.87
         120.40          98.22         656.75          20.00        2654.59         449.26
          98.30          33.33         694.41         107.78        2616.13         444.16
         121.47          32.50       -1328.02        2451.07        2272.96         213.64
         201.26          17.53        -471.13        1625.99        2176.32          92.46
          47.96         123.98         986.02        -490.51        2882.50         538.70
          42.55         119.02         204.22         619.83        2564.34         406.20
         306.51          66.10       -1203.61        2105.35        2275.61         215.00
          83.50         319.76       -1194.48        1761.90        2579.29         414.06
         119.36         196.00        -819.96        1822.59        2231.95         189.99
         398.03         167.81        -577.62        1257.26        2304.47         243.06
         133.64          24.48        3588.15       -2960.08        2763.76         492.63
         142.52          97.31       -1308.44        2329.08        2289.50         222.93
          42.46          22.95        1025.24         156.49        2302.82         236.64
          36.59         186.89       -1238.11        2183.02        2381.55         335.49
         291.65         117.51        -312.76        1160.90        2292.66         236.75
          33.72         268.70       -1020.63        1720.55        2547.60         399.44
         169.69          21.79       -1421.20        2406.98        2372.72         288.09
         145.15         387.29         507.26         230.23        2280.04         228.55
         269.62          44.56        1045.64         -51.13        2241.25         190.40
         150.76         232.55        -307.77        1193.05        2281.35         237.60
         275.81         408.21        -827.63        1124.78        2568.79         406.27
          23.22          33.64       -1362.98        2583.60        2272.49         226.15
         171.43         593.96       -1457.60        1906.61        2335.57         268.85
          92.49         153.95       -1433.30        2409.09        2327.73         278.97
          37.19         135.47        -296.91        1196.28        2477.92         362.41
         328.21         151.95        -607.63        1355.86        2321.58         237.56
         348.39         296.23        -275.77         882.40        2298.71         237.77
         247.95         685.07       -1030.11        1251.58        2395.45         318.05
         362.92          28.14         142.14         737.82        2278.92         216.26
         150.69          13.22         182.08         979.43        2224.55         155.27
         316.73         240.62        -876.93        1210.46        2659.09         441.13
         237.50         498.32       -1120.81        1460.97        2473.98         359.41
         322.17         488.74       -1206.17        1528.66        2416.56         330.44
         398.58         227.26        -915.28        1481.43        2357.99         283.66
         242.42         147.48        -315.67        1124.76        2350.97         281.22
          58.00         159.90        -669.77        1300.92        2700.90         463.90
         134.65          25.64        -485.12        1586.53        2288.27         220.66
         320.95         187.04       -1072.15        1514.80        2599.31         413.54
         113.78         584.85       -1446.70        1632.15        2665.86         461.58
         339.67          62.85         173.79         721.20        2252.46         215.34
         148.56         466.25       -1356.82        1489.31        2802.66         515.72
          96.05          73.61        -894.98        1958.09        2317.20         247.83
         161.07          17.78       -1097.06        2276.23        2191.94         116.60
         618.05         142.13        -608.08        1014.88        2382.98         316.12
          27.11          79.56        -883.53        1738.70        2588.13         411.97
         107.08          43.27       -1187.38        2351.53        2235.45         186.35
         564.79         178.20       -1326.73        1883.80        2249.90         188.63
         165.71          28.32        1635.74        -753.82        2474.01         354.01
         804.98          82.55        -265.30         409.39        2518.35         385.80
          42.14         216.62         827.12        -232.77        2696.85         470.87
          46.70         258.34        2302.03       -1644.31        2587.21         428.71
         297.80          65.29        -135.31        1042.63        2279.55         226.66
         225.67         155.35       -1162.55        1677.30        2654.19         444.98
         150.75         305.61         172.54         700.58        2220.50         207.47
         123.06          58.07          15.41         984.32        2369.11         299.47
         166.07         190.13        -463.55         842.98        2814.33         517.36
         331.40         232.83       -1398.21        2112.82        2271.14         209.45
          13.56         191.83        1157.73        -294.92        2481.75         358.13
          48.68         721.54       -1084.23        1578.58        2285.41         214.99
         760.24          83.42        -287.81         455.24        2538.88         394.07
         402.27         118.48        -445.20        1081.41        2393.00         305.17
          39.05          46.80         505.24         704.52        2254.36         204.38
         220.40         273.98       -1257.53        1974.30        2338.81         263.58
         110.61         108.04         175.20         650.49        2505.62         366.82
         212.32         180.16       -1398.97        1808.18        2748.26         492.66
          91.07         682.81          84.06         354.19        2337.84         261.88
          76.47          45.48        -578.56        1382.19        2624.35         441.25
          11.38          79.73       -1279.68        2423.72        2314.81         254.21
         646.55          86.39       -1147.65        1741.02        2223.64         170.40
          11.39         150.02       -1140.31        2210.71        2318.17         259.69
          25.66         180.57       -1383.22        2311.84        2415.10         332.09
           9.28         129.32        2020.37        -883.32        2274.31         217.53
         197.37          35.04       -1453.66        2328.29        2442.92         340.66
         262.50         242.79       -1335.89        2002.18        2378.39         284.04
          45.42          63.55       -1422.91        2632.83        2231.07         182.29
         888.03         121.03        -495.92         715.57        2321.24         262.41
         169.05         183.36       -1233.49        1897.05        2533.99         388.47
         135.57          53.28        1431.93       -1280.69        3209.85         650.17
         106.97         561.16        1064.29        -783.55        2601.08         426.15
          61.32          50.37        -199.37        1247.82        2389.83         305.80
          55.33         229.36       -1325.88        2229.71        2361.43         298.67
         156.42         142.81        -371.04        1219.36        2402.43         304.91
         450.25           8.12        -723.97        1585.33        2230.22         185.53
          20.90         167.24       -1389.19        2393.02        2358.01         271.67
         260.75          26.46         336.90         542.35        2383.52         309.35
          67.78         174.12        -574.29        1617.63        2264.72         200.80
         670.06          62.87         419.69          33.13        2364.21         288.89
          29.22          20.42        -568.91        1795.03        2274.18         227.05
         830.07           9.81       -1472.97        1806.66        2376.39         296.65
         531.99         519.99         -27.75         222.04        2303.68         262.58
         564.59          92.57         -51.97         635.49        2309.28         244.83
         239.70         232.76        -395.13         894.13        2578.51         410.04
          53.34         611.26         465.33          77.90        2342.14         265.85
         335.59         114.58        -900.71        1427.89        2572.61         407.45
         457.76         147.50       -1072.08        1558.08        2458.68         346.29
         603.26          19.77        -810.88        1239.18        2498.63         370.63
          34.85          67.68        -889.36        1971.90        2364.88         284.15
         131.61          14.33         316.73         708.15        2379.15         302.65
          74.88         232.86         145.82         766.21        2330.19         261.62
         234.09         383.75       -1472.88        1728.45        2676.54         464.10
         124.92         284.02       -1194.58        1912.55        2423.03         328.00
          44.22         927.34        -790.66        1102.73        2266.34         202.52
          41.68         197.36        -629.69        1672.35        2268.25         202.95
         140.13           5.07       -1269.24        2420.09        2253.92         205.54
         227.52         272.36        -995.07        1585.19        2459.96         370.25
          80.51         217.42        -603.74        1669.21        2186.57         135.96
         252.57         224.69         294.74         448.27        2329.68         267.10
         534.32          33.07        -869.70        1500.36        2351.93         270.66
         279.34         100.76        -765.54        1679.05        2256.35         191.35
         374.46         232.87         -98.85         723.03        2318.45         274.38
          22.41          43.47        -195.11        1436.40        2242.80         205.21
         457.21         208.60       -1356.84        1967.02        2273.97         207.42
          50.35         476.54         581.31         220.81        2220.94         165.41
         771.61          99.06         -19.04          33.80        2664.53         457.29
          68.51          17.94        1100.50         120.28        2242.72         161.59
         549.86         288.97        -839.62        1329.00        2221.73         150.21
         247.45         123.37        3971.34       -3087.76        2295.58         266.87
         157.66          22.70         184.80         932.06        2252.77         185.71
         529.10          34.25        -770.77        1473.02        2284.36         227.78
         747.37          37.45        2244.06       -1788.69        2309.78         245.34
           0.61         525.46         662.76          84.80        2276.33         243.67
         436.25         224.14        -856.05        1467.83        2277.77         227.94
          35.79          48.36        -806.38        1796.96        2475.23         358.20
          59.79         536.96         625.19        -253.37        2581.38         409.65
          44.33          22.91         401.72         363.24        2717.75         475.89
         125.82          17.03          98.81         676.27        2632.01         436.69
         278.93         222.82        -345.95        1166.83        2227.32         163.54
         218.88          23.32       -1289.32        2133.16        2463.91         350.58
         457.95         380.63        -553.90         909.65        2355.64         280.64
         249.33         109.02        -167.63        1104.42        2254.81         211.15
         556.31          25.04       -1133.26        1874.53        2227.34         206.18
         146.13          15.08       -1133.64        2000.54        2521.85         383.12
          78.48          82.93         -25.61        1074.37        2339.80         277.71
         230.48         222.22        -499.91        1383.25        2213.92         134.29
          44.27          24.58       -1058.79        2353.03        2186.89         124.32
         357.89           7.22        -860.60        1785.07        2260.40         214.52
          80.72         611.38       -1179.68        1575.68        2461.86         360.97
         112.58          95.72        -894.42        1992.28        2243.78         206.55
         108.77          20.11       -1235.42        1968.24        2688.26         469.75
          38.14          79.03        1078.17        -354.68        2709.31         474.17
         123.11         274.45       -1406.88        2191.10        2368.18         308.14
         307.09          80.32       -1311.53        1787.53        2686.54         461.27
         264.97          62.36          -5.85         493.15        2735.31         484.78
         458.71          37.62       -1353.96        2049.98        2357.61         279.16
           2.47          58.20        -727.18        1867.80        2348.68         271.80
         283.59         329.84        -886.61        1490.02        2333.09         286.16
         547.16         277.52       -1260.18        1724.34        2261.12         210.13
         158.74          63.80        -579.40         974.99        2931.84         550.03
         222.23          31.29         -45.88         525.09        2817.24         519.23
         317.35         369.01         179.84         -89.26        2773.03         494.73
          50.31         136.67        -522.04        1157.10        2727.92         480.69
         197.91         398.73       -1370.08        1906.50        2416.92         325.01
         626.65           2.39         633.37          50.15        2237.40         185.55
           1.50         208.70         805.58         131.82        2402.34         322.53
         150.03          37.10       -1128.24        2178.97        2312.10         240.64
         195.23         221.86        2031.34       -1187.02        2288.55         211.73
          22.97         135.16         269.24         867.48        2255.13         203.11
         185.57         261.09        -105.96         827.30        2381.97         312.95
         183.56         190.30         886.99        -578.22        2867.32         537.35
         590.40         132.56        -822.92        1233.34        2416.56         330.45
         187.09         649.72       -1288.26        1756.49        2244.90         210.88
          47.15          64.06       -1305.35        2550.90        2193.22         111.66
         830.79          95.07        -525.09         730.14        2419.05         334.30
          97.33         178.44         542.81         350.07        2381.30         290.89
         355.63         671.15        -385.94         477.24        2431.88         329.79
         491.93         217.00       -1152.73        1466.77        2526.98         387.51
         112.48         192.90       -1250.89        2198.00        2297.45         238.52
         601.12          64.00       -1108.66        1654.07        2339.43         263.69
         168.56         259.64        -929.12        1823.12        2227.77         191.07
         263.37          42.79        -515.84        1499.43        2260.22         190.59
         359.36         162.91         159.90         599.30        2268.50         215.62
         272.41         403.17        -714.43        1054.58        2534.23         387.83
           9.52         130.86          14.86         937.46        2457.26         352.09
         273.18         315.01        -805.59        1431.67        2335.70         275.06
         769.44         212.29        -536.99         626.18        2479.03         363.35
          28.85          56.96        -846.01        2118.42        2191.74         119.68
           1.58          45.16        -589.02        1590.16        2502.07         366.22
         332.96          48.37       -1307.28        2210.80        2265.12         219.50
          89.26         103.09       -1346.80        2355.49        2348.92         277.44
         555.61         195.22       -1401.75        1475.01        2725.88         479.25
         121.17           2.34       -1397.56        2373.35        2450.67         348.41
          39.14          43.21         183.60        1018.93        2265.08         225.02
         247.74          94.75         953.00        -530.99        2785.48         495.46
          48.31          19.01        -822.53        2126.27        2178.89         132.93
          66.43          46.45          -3.15         747.56        2692.66         462.99
          22.40          72.48        1622.71        -434.65        2267.03         188.30
          55.60          12.88        -288.61        1478.50        2291.60         208.94
         161.28         203.45       -1395.65        2034.04        2546.84         400.75
         138.02         116.76        1384.02       -1091.47        3002.64         580.00
          93.70           9.83       -1233.43        2457.93        2221.94         161.70
          83.37         167.32         112.65         773.94        2412.68         325.46
         608.29         135.43         222.29         120.24        2463.71         358.66
          29.66         112.95        -720.70        1746.04        2382.00         299.53
          68.96         229.85       -1268.75        2243.57        2276.32         235.22
         539.79         298.64       -1095.02        1592.67        2213.88         163.92
         742.02         100.29       -1175.80        1414.71        2468.73         366.67
         257.75           9.65        -967.77        1952.63        2297.68         248.98
         485.54          35.31       -1183.51        1804.55        2408.06         312.89
         142.61          31.45       -1168.95        2299.41        2245.43         187.71
          98.60         500.07        -747.89        1376.82        2322.36         265.47
         246.50         307.06          15.61         739.57        2241.23         180.81
          23.74         208.74       -1139.09        1867.68        2588.87         422.30
          45.62          41.45       -1130.51        2374.77        2218.63         161.20
           3.36          10.20         -94.49        1199.66        2431.23         325.09
          21.52         228.71         971.08         -20.57        2349.23         277.83
          39.34          84.10        1049.50          89.20        2287.81         233.85
         264.74         266.66       -1386.65        1732.71        2672.49         456.41
         199.35         130.57        1093.56        -190.28        2316.76         262.85
         206.34         325.50       -1046.71        1488.21        2576.60         405.90
         176.30          74.70         444.11         392.42        2462.42         349.98
         151.71         423.31       -1132.52        1754.25        2353.20         276.23
         118.39         153.50        -126.06         926.34        2477.79         350.93
          68.33          24.93        2570.66       -1454.00        2340.05         292.16
         172.63         660.07        -703.79         824.84        2596.21         432.87
         414.34         132.84       -1358.24        1527.82        2833.20         521.28
         328.68          21.29        -706.18        1637.94        2268.22         233.99
          84.86         348.70        1048.79        -376.49        2444.09         343.49
        1014.62          27.31       -1109.33        1447.92        2169.43         115.24
          51.14          74.78        -664.81        1859.81        2229.05         193.04
          60.15          59.66       -1172.19        1767.27        2835.09         519.87
           5.02         104.22        -383.65        1255.72        2568.66         398.80
         595.51           3.61        -671.69        1178.22        2444.31         343.29
         175.03         110.27       -1019.44        1912.72        2371.38         298.13
         381.33         412.48        -702.40        1173.52        2285.02         234.55
         214.97         130.04       -1342.04        2039.14        2507.86         366.45
          29.16         284.06        -667.47        1514.35        2389.87         315.57
         545.92          94.59        -719.62        1424.08        2204.99         129.12
         219.58         228.66         292.91          18.34        2790.48         500.24
         130.03          51.13        -298.59        1477.72        2189.67         155.90
          40.92         102.57       -1126.84        2140.38        2392.92         305.67
         269.96          75.67        -562.28        1424.10        2342.52         297.40
         371.35         187.39        -733.78        1292.32        2432.68         335.29
        1237.54          60.12        -605.96         621.63        2236.63         171.70
         164.28          92.61       -1009.81        1565.81        2737.06         494.73
         499.50          24.81       -1472.27        2263.84        2234.09         176.22
         365.38         507.51         943.47        -791.76        2525.36         382.06
         173.08         109.95       -1118.93        1988.01        2397.85         326.61
         121.17          59.10       -1006.43        2168.96        2207.16         121.66
          41.41         180.00       -1195.57        1826.24        2697.88         462.24
         394.10         246.74       -1195.88        1923.18        2181.80         132.28
          88.57         162.44       -1474.10        2405.09        2367.98         279.63
         776.66          12.02        -666.44        1201.91        2225.81         139.72
         613.33         352.47        1172.84       -1054.01        2465.30         362.67
         275.38         248.66        -586.53        1200.84        2411.63         323.73
         439.67         242.89        -186.94         757.95        2296.39         242.42
         268.31           4.20        -434.54        1284.58        2427.41         344.23
          44.06          80.27         408.63         608.74        2408.26         298.61
         321.76         247.26        -257.28         279.95        2958.25         571.98
         183.85          30.68          34.09         909.64        2391.68         303.48
          99.70          79.45        -456.56        1455.83        2371.54         277.56
         102.92         645.64          33.61         228.10        2539.68         397.46
         791.74         341.05       -1147.98        1303.26        2261.88         188.40
         618.72         144.48       -1061.93        1065.85        2782.85         497.27
         141.11         215.58        -362.32        1287.74        2267.85         222.68
         443.65         128.44        -281.37         663.59        2595.65         421.69
         104.99         338.85        1310.03       -1276.83        3072.90         605.95
         641.98          40.70        -866.61        1536.14        2197.73         144.27
          17.74         564.35        -125.36         578.50        2514.73         373.85
         113.37         446.63       -1308.18        1690.30        2607.85         429.00
          31.11         505.69        -395.83         959.27        2449.73         345.20
         302.87          49.06        1348.75        -356.13        2205.42         157.63
         116.31          28.33          95.81         943.85        2365.66         295.96
         367.12         582.11        -438.61         635.44        2403.89         323.86
         284.04         124.12         300.70         622.94        2218.15         180.25
           0.21         563.66         421.55         121.29        2443.25         339.10
         203.34         257.95        -110.36         916.22        2282.80         235.16
           2.66         103.76       -1465.26        2613.93        2294.88         244.36
           8.15         293.60         954.44          54.49        2239.29         186.64
          26.34          36.30        -418.20        1710.42        2195.08         146.24
          26.27          82.25       -1409.01        2509.89        2340.56         260.76
          24.85          94.82         578.19         209.06        2643.02         447.37
          56.51         235.38        -938.19        1833.76        2362.51         281.84
          28.34         142.49        -601.62        1355.44        2625.31         428.65
          45.09         210.26        -386.61        1275.95        2405.27         311.55
         159.46         124.76          56.78         827.80        2381.17         298.68
          40.09          12.75        1107.90        -146.78        2535.99         386.67
         159.83          65.87       -1344.00        2359.24        2309.04         251.02
         302.73         106.13        -107.61        1001.83        2246.88         202.66
         435.77         100.20         677.74         149.64        2186.61          96.56
          20.71         201.16        -373.18        1450.02        2251.28         197.27
         324.18          65.94        -152.31        1044.43        2267.73         211.85
         150.35         208.13         132.41         624.67        2434.41         345.78
         134.87          89.51       -1000.97        1996.73        2329.82         263.89
         550.90          77.00         944.41        -907.52        2885.15         537.72
         238.45         108.41        -721.40        1554.25        2370.25         294.96
          71.63         169.54         400.05         617.50        2291.23         249.25
          72.48          38.92        1679.46        -624.68        2383.78         307.83
         221.13         102.23        -511.34        1069.99        2667.95         446.80
         224.59         241.95        1597.15        -798.04        2284.32         242.93
         514.76         291.54        -836.83        1315.72        2264.77         205.13
           1.32          70.85           0.20        1166.40        2311.17         248.58
         274.96         126.98        2811.82       -2042.75        2378.96         311.94
         823.55         158.58          33.52         173.50        2360.81         293.39
          13.93         252.13          19.05        1058.53        2206.34         144.65
         347.41           0.86        -527.03        1518.92        2209.82         168.42
         303.63         154.89       -1067.99        1655.30        2504.13         372.83
         151.51           2.21       -1402.54        2428.77        2370.02         299.21
         130.06         385.25        1867.55       -1066.29        2233.39         185.71
          90.54         113.43         395.03         -43.06        2994.02         577.44
         233.31           8.44        -656.45        1698.16        2266.49         224.88
         721.97         426.30       -1178.37        1403.74        2176.30          87.41
         237.19          53.11         157.84         828.72        2273.10         220.60
         274.11          34.32         -16.66         946.32        2311.89         259.09
         264.11         305.90       -1272.12        1730.69        2521.38         367.35
          93.13          57.28         -83.75         763.03        2720.26         473.84
         337.69          71.73         900.41        -114.59        2354.72         289.73
          13.98         238.55       -1437.91        2219.24        2516.10         384.94
         366.29         542.02        -640.12         949.76        2332.01         260.36
         153.86          83.49         161.56         857.94        2293.13         262.04
         163.43         158.88          55.02         460.58        2712.06         483.81
         622.10          81.42         252.25         295.42        2298.77         245.19
         100.45          64.81        -396.14        1573.09        2207.75         164.59
         643.45          64.50         -66.99         647.42        2261.56         229.61
         348.87         184.79         499.45         200.68        2316.15         245.48
         337.15         127.58        -828.65        1522.56        2391.29         307.13
         244.30           4.74           0.39        1040.37        2260.17         201.18
           1.45         690.21        -985.07        1425.02        2418.32         325.73
         144.94          24.41        -642.04        1796.21        2226.44         171.79
          15.23           6.89         801.13         320.01        2406.68         302.96
         343.94          62.54        -888.97        1752.62        2279.84         220.99
         265.63         768.59        -567.12         838.32        2244.54         191.51
          92.54         312.61        -448.67        1277.06        2316.44         260.54
          57.42         156.82       -1464.06        2598.93        2200.86         129.83
         505.87          58.76       -1235.66        1938.39        2282.61         227.12
         350.22          28.94         906.10          11.19        2253.52         209.83
         247.51         179.16       -1065.44        1812.54        2376.20         296.14
          48.44         154.15       -1349.37        2214.84        2481.91         354.38
           8.94         279.04       -1192.20        2124.01        2330.16         267.20
         601.17          73.18        1407.35       -1139.27        2607.54         412.68
          73.15          21.62        -812.66        1789.40        2478.47         360.26
         130.84         107.48         790.82         -78.64        2599.47         419.52
         249.86          22.66        1121.80        -296.25        2451.88         306.66
         155.60          59.89       -1010.27        1907.04        2437.70         335.74
           5.94         181.51       -1039.07        2138.18        2263.41         181.39
         409.40         351.05       -1256.89        1261.43        2784.95         509.12
         258.12         130.20        -506.93        1341.35        2327.21         257.36
          55.25         252.15         393.19         593.70        2255.69         207.85
          70.49         330.94        -191.27        1112.75        2227.03         213.71
           9.37         376.92         911.51        -229.72        2481.90         363.69
          22.06         682.86        -632.81        1191.28        2286.58         215.81
         135.11          60.72        -737.18        1879.26        2212.05         133.26
         256.86         156.60         -73.19         726.23        2483.47         365.14
         108.68         159.22        -543.45        1624.67        2200.83         158.11
         312.14         110.87        -671.39        1478.70        2319.65         239.35
         767.05          41.85       -1201.71        1730.30        2212.46         136.28
          42.91          29.82        -738.51        1103.83        3111.90         632.79
         212.34         261.21       -1359.66        2171.60        2264.48         178.14
         996.58          13.77        -366.10         661.13        2244.56         190.76
         497.72          66.75       -1364.43        1666.21        2683.70         460.57
          99.10          15.82       -1044.97        1680.80        2799.20         502.29
         843.24          20.00       -1383.36        1434.50        2635.55         433.74
         519.12          27.20       -1446.08        2196.88        2252.83         197.50
         294.72         418.32        1165.26        -709.35        2381.01         297.20
          62.27         220.65       -1376.64        2336.82        2306.86         249.68
         554.70           1.27        -224.18         966.88        2251.29         182.40
         118.40          23.78        -850.79        1926.23        2332.33         266.15
          82.24         345.64        -232.57         988.89        2365.76         295.72
         388.70          25.20       -1108.36        1934.06        2310.36         236.95
         186.01         135.07       -1093.63        1795.30        2527.21         386.49
          23.98          78.67         666.78         489.16        2291.38         236.92
          68.27         210.17        -747.24        1525.51        2493.23         375.44
         576.02         305.10         606.85        -401.50        2463.49         351.41
         327.95         507.30       -1178.47        1375.51        2517.68         385.19
         409.88          26.70        -801.64        1650.20        2264.82         203.91
         167.38          65.57        -101.75        1038.22        2380.52         309.40
         301.20         211.65       -1374.68        1753.86        2657.93         451.07
         616.17          49.60        -446.81         992.30        2338.72         268.84
         372.86          77.80       -1437.06        2164.87        2371.50         288.74
          25.02         107.43        -914.37        1965.97        2365.93         269.93
          32.73         406.43        1157.59        -732.98        2686.20         462.20
          80.37         628.88       -1127.49        1301.16        2667.05         455.39
         392.78         408.48        -540.33        1069.01        2220.02         182.75
         452.10         157.27       -1098.55        1741.91        2297.24         232.23
         436.69         373.22        -332.02         767.58        2304.49         240.28
          38.98         189.01        -438.31        1075.27        2685.00         444.88
         204.18         246.14       -1194.11        2059.49        2234.27         180.78
         876.79         151.86        -891.61         978.82        2434.08         333.15
         411.36          96.32         147.51         572.86        2321.91         276.87
          43.23         101.46        -705.84        1415.06        2696.05         466.10
         141.66         196.76        -523.87        1037.75        2697.64         466.77
         447.38         130.81        -895.95        1560.36        2307.34         243.37
         143.80          94.07          -4.42         872.91        2443.59         335.50
         175.79         458.71        -706.47         856.92        2765.01         486.60
         426.72         131.14         281.38         248.83        2461.89         342.89
         366.39         199.65        -250.35         731.96        2502.30         378.19
          16.25          69.62        -328.13        1097.84        2694.39         450.41
          40.75          85.15       -1328.11        2448.36        2303.81         237.31
         804.74          58.10        -867.81        1265.11        2289.82         234.93
         596.86         376.01        1010.90        -940.88        2507.05         378.92
           2.17          61.32       -1169.73        2423.66        2232.54         187.38
          76.41         320.61         -99.62         702.98        2549.60         384.58
          75.84          64.11       -1054.25        2123.52        2340.76         282.12
         734.03         179.59        -892.17        1239.82        2288.70         226.37
          94.67         134.90        -198.63        1121.19        2397.83         304.30
         113.41          11.07        -368.80        1575.77        2218.53         150.64
         104.30          73.46        -653.77        1377.34        2648.65         441.74
         110.73          34.29        -497.25        1062.87        2839.30         527.15
         109.22         188.90        2713.22       -1757.05        2295.66         239.93
         113.07         111.98       -1097.14        1963.02        2459.04         367.62
         106.67          73.03         837.70         297.32        2235.24         179.38
         263.45         195.61       -1038.56        1773.07        2356.40         267.68
         103.82         129.73        -114.53         582.60        2848.34         527.60
         239.35           3.48       -1327.04        2208.91        2425.24         332.18
          45.42         172.68       -1399.85        2273.77        2457.95         351.20
         850.95          41.81       -1426.89        1775.38        2308.70         246.28
         708.80          74.37        -663.46         901.57        2528.69         384.62
         274.82          88.66       -1229.10        1983.10        2432.47         350.14
         331.11          82.28       -1385.56        2172.33        2349.80         278.09
          51.46         130.76        -861.08        1595.73        2633.11         442.09
          35.30         210.53         -50.08         666.96        2687.25         471.69
           6.25         182.53       -1099.46        2089.38        2371.26         268.79
         276.82         136.07        -561.28        1290.43        2407.91         319.23
           9.05         865.03         -10.76         156.54        2530.10         386.02
          31.83         541.47       -1331.83        1990.32        2318.18         240.34
         272.56          23.29        -131.11        1081.20        2304.03         236.14
         182.50          24.99        -490.36        1365.96        2466.88         351.23
          63.59         292.95         175.25         410.16        2608.02         419.59
         327.48         180.87        -830.54        1541.52        2330.63         260.41
         384.01          23.91       -1138.52        1423.36        2857.20         536.33
         287.72         123.87        -950.15        1158.88        2929.62         565.75
          22.73         227.57       -1212.00        2304.16        2207.49         157.24
         108.08         212.81        -741.45        1718.40        2252.15         213.67
          60.94         403.37        2955.40       -2592.82        2723.08         488.33
         182.82         145.19         185.00         402.77        2634.18         444.83
          60.81         233.53        1515.71       -1367.11        3107.02         614.76
         632.43          44.00       -1211.37        1603.19        2481.72         358.17
          83.13           9.32       -1304.36        2440.90        2320.97         258.73
         196.92         316.24        -185.68         928.81        2293.69         247.23
         112.02          24.53        -190.30        1008.59        2595.11         420.28
          33.76         240.34       -1399.28        2439.62        2235.55         170.86
         357.71         713.30        2255.20       -2155.27        2379.02         312.56
         522.45          25.86        1222.68        -929.85        2708.81         471.77
          66.65         116.07        -389.85        1108.15        2648.91         443.60
         627.88          61.03       -1324.05        1879.24        2305.87         242.57
         282.84          68.00        -831.87        1554.26        2476.72         360.35
         176.82         122.71        -122.46        1065.90        2307.00         251.16
         225.50         304.49        -284.80         880.05        2424.73         331.38
          56.37         136.84       -1386.26        2367.61        2375.39         289.51
         362.35         133.90       -1314.93        2001.56        2367.07         288.35
         160.60         273.39        -340.95        1090.91        2366.02         281.59
          61.95         139.77       -1220.61        2296.11        2272.75         224.89
         194.64         236.80        -886.84        1657.31        2348.06         276.65
          84.50         198.22        2193.75       -1225.25        2298.74         255.54
         801.31          15.34        -475.21         793.78        2414.73         315.78
         192.44         111.84         -46.54        1092.38        2199.84         167.26
         144.81         300.02       -1195.69        1501.59        2799.22         508.74
         187.49         273.56        -460.19        1291.22        2257.86         212.43
          27.71         441.63         219.35         189.07        2672.19         454.36
         137.47          34.06        -792.98        1947.06        2224.35         161.10
          67.29          43.28        -587.02        1345.34        2681.06         459.15
         298.52         441.96       -1226.72        1615.37        2420.83         324.40
          28.44         687.19        -419.49         424.99        2828.82         523.10
          89.46         170.62         388.63         698.94        2202.30         146.27
          11.41         144.37       -1276.52        2019.78        2650.91         458.33
          21.80          27.63        1881.20        -821.28        2440.62         329.81
         287.96         293.99         619.02         -41.44        2390.43         307.65
         182.10         171.00        -674.05        1542.91        2327.99         258.64
          64.14           8.38         492.96         775.85        2208.64         153.78
         114.44          47.17        -459.44        1463.92        2383.88         306.17
         773.46         110.11        1233.18        -865.05        2298.26         239.75
         131.01          18.97       -1042.38        2165.52        2276.83         212.27
          92.53         504.74        1924.56       -1683.92        2712.04         488.89
         629.58          84.44        -887.26        1525.81        2197.39         130.37
         387.30         168.18        -789.44        1443.88        2340.04         269.55
         115.50         113.75         574.88         227.82        2518.02         392.34
         294.25         153.47        -569.26        1381.10        2290.39         232.23
         392.41         148.68       -1195.24        1723.17        2480.94         360.87
         241.02          39.88       -1091.11        1925.13        2435.06         339.13
         392.08          75.63        -735.10        1086.52        2730.83         475.38
          55.10          31.46        -937.81        1868.43        2532.79         388.45
         139.91         167.06        -365.12        1245.64        2362.45         282.23
         347.74         214.74         719.75        -358.35        2626.07         437.00
          38.27         749.83       -1110.96        1194.30        2678.51         462.08
         511.08          25.33         175.08        -149.83        2988.31         572.84
         247.68         456.98       -1320.26        1878.22        2287.35         225.37
          79.58         551.50       -1181.69        1748.76        2351.82         279.30
          42.10         181.47        -915.11        2004.15        2237.36         178.16
         246.80          35.73        -966.06        1987.83        2245.66         172.94
        1010.59          24.75       -1106.35        1412.53        2208.44         181.76
         277.08         114.68        -109.71        1057.95        2209.95         152.96
          32.99         257.12       -1474.51        2344.06        2390.29         306.56
         188.23          27.05         509.06         470.56        2355.08         273.66
         157.32         302.66        1416.39        -830.27        2503.86         374.57
         263.91         197.56        -210.36         898.14        2400.72         309.32
          88.81          40.98        -604.42        1432.59        2592.00         412.95
         400.40         127.85        -556.98        1141.11        2437.60         345.33
         150.64         209.71         457.49         503.63        2228.50         157.18
          47.26          66.73       -1454.71        2607.88        2282.80         230.29
          60.15          92.69        -981.29        2003.87        2374.55         290.68
          82.43         227.58        -852.01        1512.77        2579.18         412.01
         269.06          60.63         946.51        -362.26        2636.01         444.82
         184.88         425.29          29.75         481.03        2429.00         334.12
         251.37         101.01         141.97         827.19        2228.41         179.27
          64.57         123.73       -1116.33        2017.45        2460.54         357.55
         289.02         163.96        -535.64        1058.37        2574.25         415.30
          67.60         420.14       -1313.82        1775.89        2600.14         422.59
          42.66         128.75          49.81         682.16        2646.59         433.63
         330.30         266.80         590.64         -44.46        2406.69         312.44
         117.13          13.64        -531.05        1486.65        2463.61         350.95
         432.61         139.71        -832.25        1469.06        2340.82         286.07
         364.97           5.53        -645.32        1417.96        2406.82         309.03
         378.66          44.46         658.40          53.77        2414.69         313.46
         421.06         181.75          65.13          88.83        2793.20         500.30
         262.63         111.73         340.88         567.36        2267.35         250.26
         149.30         220.38       -1262.87        2054.90        2388.26         296.94
          95.06          76.92        1521.25        -490.49        2347.22         261.76
         384.15         347.18        1745.26       -1459.58        2532.95         392.34
          13.34          91.99         -62.69        1262.54        2244.78         202.87
         669.38          61.43         205.40        -109.89        2723.63         472.37
           4.71         127.50       -1160.85        2291.17        2287.41         220.82
         163.21          49.86        -852.55        1672.65        2516.79         379.53
         282.72         392.93        -284.60         841.54        2317.36         258.27
         162.02         223.27       -1027.53        1898.98        2293.21         230.75
         238.64          60.73        -710.25        1617.11        2343.73         269.99
         191.52          92.93       -1397.35        2327.92        2334.94         264.49
         567.79          78.04         142.23         192.59        2569.31         397.52
         303.55          50.81        -725.84        1487.93        2433.53         338.19
          29.64          67.54       -1128.16        2100.44        2480.48         358.58
         142.26          45.74        -777.36        1759.62        2379.70         301.91
          10.04         456.53       -1070.65        1772.53        2381.52         286.24
         318.88          32.99       -1372.32        1944.60        2625.82         428.69
         309.21           6.23       -1341.81        2377.10        2199.22         124.19
         509.39         269.68         133.98         344.97        2291.92         254.02
         139.19          73.55       -1468.44        2543.50        2262.17         218.59
         596.91         534.48       -1439.18        1587.22        2270.53         201.18
          98.21         217.82       -1258.29        1958.03        2534.18         390.12
          78.34          63.42        -799.37        1450.73        2756.84         490.51
         216.74          21.73        -990.13        1891.10        2410.53         319.22
          99.92          24.82        -460.28        1295.53        2589.98         432.01
         199.28          18.88        -743.45        1833.41        2241.83         224.65
          39.78         259.90       -1405.58        2239.70        2416.18         316.65
          14.00         287.42       -1358.46        2038.65        2568.36         398.17
         428.40         139.58          39.32         466.31        2476.35         357.70
          33.04         359.59       -1042.44        1691.54        2508.23         383.51
           3.34          51.16       -1150.56        2226.67        2419.38         308.79
         447.16         326.42          40.85         505.30        2230.22         152.84
          33.09         158.86       -1350.87        1823.89        2884.99         540.11
         303.77          26.93        -829.10        1847.32        2201.04         128.56
         170.57          68.36       -1322.36        2368.26        2265.14         202.54
          39.45          38.45       -1413.46        2693.65        2191.87         128.92
          52.71         101.48        -318.35         997.28        2716.84         468.68
           3.57         205.65       -1452.33        2411.59        2381.48         302.99
         150.41         166.69        1501.79       -1055.51        2786.58         511.46
         108.80         222.60        -194.92         868.32        2545.17         386.53
          11.77           2.05        1557.53        -335.25        2313.86         247.09
         200.37          10.80        -922.18        1977.45        2283.52         235.21
         372.44         328.29         258.82         216.19        2374.22         309.03
         209.75         222.00         520.57         378.01        2219.63         165.60
         251.80          11.23       -1418.74        2337.34        2368.33         283.56
         201.92         297.00        -328.63         704.98        2674.69         450.63
         410.95          33.60        -990.02        1828.83        2266.60         212.69
         146.11          89.65        -938.97        1664.26        2588.89         414.94
          42.85         130.59         199.26         780.87        2396.40         320.09
         116.39         566.32       -1442.90        1931.03        2379.11         301.61
         105.90         156.14        -446.75        1278.37        2456.29         345.22
         326.72         211.60        -367.13         885.30        2493.45         371.74
          14.45         785.49        -782.65        1213.22        2319.44         256.44
         202.19         106.68       -1248.87        1663.58        2826.39         518.20
          68.77          11.95       -1143.57        2102.96        2509.87         368.54
           0.00         211.64        -739.83        1714.94        2363.21         292.96
          78.94          80.08         301.13         871.26        2218.58         144.66
         511.04           7.26        -852.63        1634.32        2249.96         185.55
         358.27         284.99        1035.64        -961.98        2833.05         520.25
          67.09         278.11        -747.82        1670.55        2282.03         229.84
         207.45          59.82        -652.44        1495.98        2439.16         341.05
         511.28         149.22        -757.83        1426.07        2221.21         158.46
         434.39          22.27       -1461.46        2307.61        2247.16         186.09
         470.97           9.27        -246.07         721.96        2593.83         419.40
         332.25          20.69         158.36         143.11        2895.54         548.19
         352.27         156.36        2899.75       -2671.49        2813.06         506.73
         572.89          37.83       -1093.12        1821.69        2210.66         166.47
         410.66          46.49        -954.00        1703.84        2342.94         290.55
          82.07          25.14       -1383.62        2390.04        2436.33         323.94
         148.89         171.94        1117.26        -240.53        2352.40         291.37
         313.62         127.60         926.71        -186.87        2368.89         303.07
         136.17          82.24        -591.99        1699.14        2224.40         154.07
         285.12         169.62        -786.29         931.46        2950.06         565.94
         151.42          37.12         359.12         760.63        2241.65         190.60
         595.33          62.02        -509.09        1105.79        2295.93         221.05
         549.43         167.20        -882.42        1415.62        2300.12         248.75
          76.90         444.04        -771.13        1561.50        2238.66         166.76
          71.53           4.04       -1418.00        2283.14        2609.27         430.28
          29.71         417.60        -105.35         885.43        2322.59         240.36
         228.72          28.17         901.45          89.37        2302.28         241.25
         621.87          13.31         146.67         535.62        2232.49         217.89
         331.84         232.31       -1082.55        1255.33        2813.03         519.72
           1.78         180.91        -641.06        1757.45        2250.87         206.13
         304.49          29.11        -495.48        1475.40        2236.46         181.22
         187.99          92.50        -838.68        1881.84        2226.33         171.32
         124.64         120.11        -492.22         600.79        3196.64         646.73
         104.98         325.75        -582.21        1366.69        2334.76         251.66
         248.95          49.84       -1103.69        2077.99        2276.89         210.01
         275.12         470.98       -1416.59        1759.03        2461.40         356.17
         216.39         104.92       -1459.81        2429.26        2259.20         202.78
         318.99          18.76        -380.07         437.98        3154.30         637.25
          20.21         210.39       -1216.49        2198.11        2337.75         264.75
         766.19          80.15       -1443.81        1741.62        2405.80         306.09
         479.89          97.89         -81.25         505.86        2547.56         392.11
          91.42          73.09        -371.89        1004.97        2752.38         483.91
          70.90         186.39        -138.57        1087.50        2343.75         271.45
         108.32         258.88        -727.50         872.27        3037.99         598.73
         302.18           6.53         136.99         878.39        2225.87         174.17
         399.16         546.20       -1125.77        1198.28        2532.09         378.08
         241.78         476.23         492.87        -170.66        2509.73         381.10
          28.66          24.38        -132.75        1031.71        2597.97         417.83
          26.52          55.82         -18.18        1254.19        2231.62         168.83
         281.79          52.76         753.66        -589.95        3051.70         593.30
           8.25         107.85        -481.83        1120.82        2794.89         513.04
          17.12           4.12        -594.50        1779.51        2343.72         276.30
         326.40          19.71        1107.79        -218.77        2314.84         246.18
         648.65         155.08       -1394.26        1942.12        2198.35         160.91
           4.91          75.79       -1187.06        2036.25        2620.07         433.19
           4.18          36.73        2750.78       -1472.33        2230.61         188.39
         574.90         322.90         266.83         -95.72        2481.04         352.37
          51.25          84.15        3014.29       -2349.25        2749.52         495.15
          12.57         166.85         -79.45        1238.32        2211.69         147.97
          55.87           0.88          -9.62         866.47        2636.35         445.88
         344.23          24.75       -1240.15        2224.97        2196.15         124.72
         105.47         217.29       -1141.96        1394.06        2975.11         578.60
         247.39          11.71         150.80         918.54        2221.51         182.92
          88.00         421.61       -1048.83        1762.77        2326.41         267.57
          31.12          53.37        -967.06        2061.65        2370.88         288.53
         517.78         209.26        -544.48         984.13        2383.27         284.41
         147.20          21.06        -553.50        1646.51        2288.68         223.97
          24.07          61.31        -278.15         900.61        2842.11         520.86
         195.01         109.32        1220.30        -375.04        2400.38         331.46
         100.02         238.77         542.58          47.68        2620.92         436.78
         379.40          21.50        -270.82        1075.57        2344.29         274.35
         365.77           4.21       -1155.46        2145.89        2189.54         109.68
         431.06          36.34        -458.14         888.81        2651.87         450.15
           1.58          23.08         766.95         237.49        2520.87         387.38
          33.75         207.48       -1214.00        2026.82        2495.90         371.16
         244.20          41.41        1949.94        -893.43        2207.85         154.69
         300.65         162.02       -1445.19        2271.99        2260.49         212.06
          62.40          12.98        -276.74        1474.54        2276.79         219.53
          77.41         272.55       -1477.12        1503.62        3173.49         642.55
          11.20           1.09         490.78         832.34        2214.54         178.00
         430.38          28.25        -567.36         861.74        2796.96         512.88
          15.65          26.57        -782.68        1965.93        2324.52         239.20
         894.59          97.09         472.89        -164.18        2249.58         199.29
         495.53         299.26       -1282.35        1517.85        2519.68         394.48
          19.67           6.19        -514.46        1751.87        2286.68         225.64
          65.78         182.69        -597.05        1480.98        2417.56         327.46
         175.46          34.21        2029.92        -975.29        2285.67         230.26
         381.10          54.38         332.49         215.41        2566.59         406.08
          55.45          54.22        -230.92        1328.54        2342.69         265.84
          88.02          11.10         -96.08         859.80        2687.12         453.51
         935.36          54.90        -699.11         901.04        2357.77         293.48
         111.56          63.95        -427.78        1486.31        2315.90         265.32
         503.35          54.10       -1079.56        1494.37        2577.70         406.05
         265.84          31.14        -777.69        1391.82        2638.85         433.72
         246.41         119.59       -1266.95        2050.81        2400.10         323.89
         426.79         144.49         197.68         353.48        2427.52         335.23
         111.75          77.83         515.91         627.55        2216.92         150.28
         109.17         126.36        -280.20        1326.34        2268.30         178.13
         198.33         105.95        1216.90        -392.60        2421.40         323.35
         311.49         101.28        -781.37        1684.22        2234.36         160.54
         261.75           2.33        -677.90         700.52        3263.26         669.83
         132.28         202.61        -621.12        1504.88        2331.30         284.63
         274.21           7.07        1222.80        -161.67        2207.54         160.48
         197.30          21.01         158.96         958.21        2214.50         152.14
         450.09         169.84          28.26         226.00        2675.79         458.21
         532.40         105.44          38.84         580.32        2292.97         252.61
         391.50         213.30       -1332.36        1576.62        2700.88         470.65
         776.13         122.12        3129.76       -3063.40        2585.34         425.90
          14.86          45.97       -1268.66        2472.52        2285.27         211.35
          89.33          28.32        -842.18        1932.07        2342.42         277.74
          35.19         219.23         249.04         461.63        2584.87         411.98
         145.54          43.53        -855.22        1834.91        2381.20         292.67
         124.82         442.69        1525.57        -851.45        2308.31         245.83
         334.58          32.13        -743.51        1410.72        2516.03         375.76
         247.29          41.88        3687.99       -2630.05        2202.87         169.94
         313.49         478.32         782.26        -407.53        2383.41         290.86
         296.16         183.08         974.10        -109.59        2206.20         168.74
         212.20          95.95        -325.01        1358.39        2208.44         129.16
         755.32          30.73        -958.87        1444.52        2278.28         189.56
         294.13         372.65         635.27        -529.44        2777.36         500.39
          31.92          40.62       -1098.64        2212.19        2363.87         284.67
         280.27          63.64       -1308.40        2296.19        2218.25         177.87
          12.41         363.00       -1415.58        2121.57        2468.56         349.70
           1.91          50.94        -234.68        1074.25        2657.54         450.80
         114.47         202.00          97.70         921.46        2214.33         218.92
          53.02         419.53        -947.05        1580.25        2444.19         341.86
         318.23          76.71         442.57         489.38        2223.08         165.08
         630.28         333.11        -681.94         790.99        2477.51         359.00
         995.33         177.98        -214.65         357.07        2234.24         150.38
         694.93         111.67        -558.93         894.18        2408.11         328.24
          44.50         241.32        -933.64        1129.45        3068.32         603.40
         299.31          24.13       -1188.06        1948.56        2466.01         369.07
         468.49          49.98        -761.65        1241.04        2552.09         400.81
           4.21         151.82       -1218.49        2115.52        2496.91         369.66
          11.99         279.34       -1096.08        2095.24        2259.47         200.85
         264.88         180.02       -1360.25        2098.02        2367.31         295.28
         283.03         131.64         371.82         425.35        2338.14         265.89
         400.88          28.11       -1069.52        1810.78        2379.73         280.90
          79.17          25.63       -1149.63        2401.09        2193.70         153.37
          57.02          83.59         591.77         412.01        2405.57         309.99
          23.66         253.97         240.10         688.53        2343.70         270.95
         393.03         185.53        1402.17        -622.62        2191.87         130.85
          20.29          97.41        -420.23        1136.84        2715.67         472.73
         352.63          19.09        3090.95       -2178.06        2265.35         205.35
          39.43          16.03       -1316.01        2251.23        2559.27         396.75
         241.26          27.01        -744.27        1669.90        2356.07         296.70
         473.49          41.17       -1008.37        1579.18        2464.50         355.37
         154.46         236.35        -751.71        1100.78        2810.07         507.69
         352.24         159.70       -1018.59        1540.30        2516.32         382.12
         379.68         170.17         835.14        -145.78        2310.73         253.41
         119.28         330.97        -607.64        1313.07        2394.28         310.75
          32.33          42.35        -558.56        1181.85        2851.99         527.08
         807.91          80.60        1452.72       -1241.41        2450.14         346.83
          60.05         186.60        -280.67        1279.15        2304.84         264.83
         335.29          70.62        -305.36         956.80        2492.62         365.35
         310.95         107.93         918.30          -3.02        2215.79         193.30
         552.78         228.86         341.70          17.90        2408.71         314.37
         643.73          75.12        -729.72        1308.54        2252.29         196.79
         700.27          51.38        -245.73         801.07        2242.97         170.70
          16.82         574.79        -661.23        1073.11        2546.47         401.94
         254.67         290.38        -331.54        1022.57        2313.88         244.07
          38.95         131.05        -802.23        1740.96        2441.23         337.32
         207.21          66.26       -1300.90        1562.97        3014.44         582.09
         254.19         347.17        -290.54         335.53        2903.61         549.70
         207.04         261.81        -787.17        1510.75        2357.53         276.18
         128.62         133.10         687.37         295.99        2304.87         251.67
         103.72          52.49       -1288.43        2494.15        2188.01         126.21
         171.31         186.40        -495.93         985.62        2702.56         461.35
         223.51         190.31       -1269.06        2032.21        2372.98         297.91
          57.87         607.36        -572.63         635.30        2822.06         522.11
         549.34          43.36       -1300.54        1957.73        2300.07         255.74
         194.95         298.93        -286.97        1125.35        2217.69         145.03
         359.63          62.08         667.07         241.19        2220.01         157.84
         530.02         121.66       -1067.90        1535.86        2430.31         337.88
          60.21          41.52        -594.20        1727.96        2314.48         252.82
         211.33         712.92         -26.38         241.49        2410.59         326.66
          11.74         343.07        -716.15        1588.44        2322.85         257.38
         267.43         341.02       -1169.10        1624.10        2486.54         356.47
         135.53          69.54        -765.54        1886.58        2223.87         183.17
          21.83         602.88        2653.28       -2201.49        2473.47         337.07
         232.80         252.40         -13.23         670.42        2407.57         315.61
          27.56          71.69        -332.16        1523.82        2259.05         206.05
         313.64          20.46        -685.69        1106.78        2794.78         514.95
          27.08         821.52       -1253.93        1499.85        2455.43         349.01
         284.51         201.86        -792.89        1335.12        2521.35         377.94
         312.23         538.12       -1448.03        1881.00        2266.66         216.98
         154.54          71.76        1120.95        -360.46        2563.19         394.66
          12.53          50.40       -1435.57        2663.36        2259.23         199.20
         336.26          40.48        -164.43         948.22        2389.43         290.93
         568.00          98.27        1688.95       -1030.34        2225.08         165.30
          28.69         324.00        1011.31        -104.07        2290.03         218.85
          30.32          86.44        -942.01        1220.33        3154.88         629.97
         177.41         335.52         424.33         -21.78        2634.48         438.23
          99.19           3.65          99.70        1168.60        2178.83         103.75
         220.17         285.36        -935.89        1229.45        2750.87         486.75
         144.49         119.36       -1123.90        2115.85        2294.16         258.51
         194.43          59.03         156.28         847.30        2292.92         237.69
         115.56         126.30       -1188.62        2149.18        2347.53         278.42
         372.42          39.18        1031.56        -404.09        2510.89         379.17
         136.76          83.82       -1038.10        2046.23        2321.24         261.97
         148.59         313.72       -1038.19        1336.56        2789.29         509.80
         198.84          53.08         180.74         535.58        2581.73         411.22
          40.68          67.67       -1382.10        2036.32        2787.39         500.78
         266.42          54.60        -523.37        1355.00        2397.32         317.88
          21.91         832.78       -1442.16        1642.56        2494.87         361.70
         280.59         546.60         304.44         -15.00        2433.33         329.64
         128.87         254.13       -1291.53        2025.03        2433.47         333.98
         375.53         120.27         -42.59         857.97        2238.79         170.88
          17.88           2.04        -406.21        1758.80        2177.46         104.56
         378.25          35.87       -1208.22        2132.59        2211.47         139.78
         159.72         383.87        -690.33        1016.58        2680.12         452.08
         433.25         138.66        1578.76        -797.33        2196.59         186.90
         108.80         215.85       -1473.88        2450.74        2248.46         208.72
          30.21          51.36        -489.53        1432.59        2525.32         389.91
         239.80           8.27        1023.74        -281.51        2559.68         431.76
         603.87          66.61        -643.53        1111.00        2412.02         319.45
         216.27         250.43        -975.04        1844.55        2213.75         154.61
         515.61         686.41        -310.78         365.94        2292.77         236.87
          85.28         304.89        1345.85        -805.97        2619.91         433.42
         709.45         433.41        -177.24         307.27        2277.04         226.11
          37.16           3.29       -1096.45        2297.19        2308.78         248.49
         101.70         172.31        -791.07        1695.85        2371.16         302.25
           8.51         142.15        -457.97        1583.54        2273.73         222.48
         187.66         207.62        -173.24        1125.77        2202.17         177.43
         221.72         319.17        -864.34        1534.02        2339.37         287.40
         245.03          41.39        -109.92         434.30        2939.16         563.72
         144.55          81.71         619.20         291.38        2413.11         321.16
          13.82          42.86       -1256.09        1809.86        2939.51         559.43
         251.17          34.56        -244.08        1279.21        2229.10         155.25
         126.05          15.54        -200.96        1171.31        2438.02         349.07
         812.60         155.82         309.75          14.61        2257.19         181.45
         119.01         484.76        -749.87        1025.86        2670.21         449.81
         216.25         210.07        -393.38         720.95        2796.06         501.94
           0.70           9.28       -1375.67        2688.52        2227.12         176.02
         409.71          10.62        2233.55       -1679.82        2575.90         420.31
         262.49          94.03        -156.51         752.61        2597.33         419.81
         648.37         167.45        -932.97        1435.05        2232.05         164.02
         103.00          12.35        1440.73        -280.32        2274.20         225.16
         333.88         175.03       -1408.52        1834.75        2614.81         427.69
         317.94          82.93       -1181.39        1996.50        2333.98         281.24
         665.17         133.71       -1479.48        1939.86        2290.71         237.33
         102.41         190.46        -979.28        2018.60        2217.76         160.05
         751.73          52.73       -1387.13        1731.93        2400.71         314.20
         177.69          90.74       -1065.34        2029.62        2317.23         257.99
         178.84         159.40        -974.41        1761.49        2424.63         340.87
          37.21          64.96        -854.95        1830.94        2471.81         368.42
         140.01         288.20         603.45        -132.61        2650.91         442.69
         640.19          41.52        -813.98        1357.40        2324.84         248.75
          61.27          51.24       -1186.07        2454.31        2169.21          83.37
         365.82         204.25        -974.45        1656.29        2298.04         236.52
          42.67         189.99         606.62         179.13        2531.55         383.82
          52.09          51.83       -1313.72        2506.81        2252.94         200.59
         255.72           3.57        -902.34        1934.43        2258.59         203.73
         156.26          83.37       -1144.47        1434.01        3020.80         583.61
          78.57         371.59        -383.74         989.71        2493.83         368.23
         274.47          27.12         236.06         824.50        2187.80         100.92
          99.76         329.55       -1174.12        1818.21        2476.55         370.35
         522.30          96.34        -930.89        1393.85        2468.37         366.24
         100.06         185.85        -204.18        1184.28        2283.96         230.75
         382.84         690.75        -779.97         837.63        2418.73         333.48
          37.70         305.63          82.22         655.70        2468.71         345.60
         320.70          72.93       -1319.39        2152.88        2322.86         245.03
         159.95         221.46        -924.38        1555.89        2537.04         392.75
          20.00          83.97        -343.52        1086.11        2703.40         466.93
         251.32          47.07         362.04         622.38        2267.15         213.13
         205.51          42.78       -1135.51        2256.43        2180.73         138.16
         162.85         190.14         243.61         353.87        2599.50         424.38
         482.61           1.81        -729.36        1552.17        2242.74         171.43
         232.86         177.85         -59.48         926.61        2272.12         231.33
         206.87          12.92         167.98         500.88        2661.30         456.61
         152.47          63.48        1244.97        -249.91        2338.96         282.66
         219.05         200.05        -571.21        1305.93        2396.15         301.23
         217.47          82.91       -1405.84        2142.43        2512.98         371.01
         504.21          40.36       -1129.79        1926.28        2208.89         147.67
         131.85         143.38       -1370.51        2337.74        2307.50         237.95
         218.89          68.84       -1175.99        2221.75        2216.49         172.75
          96.17         154.27       -1275.07        2072.51        2502.10         364.07
          33.51          77.98          27.05        1122.95        2288.47         260.70
         581.42         243.59         624.96        -233.37        2333.36         276.45
         331.52         270.82        -738.61        1290.07        2396.19         312.94
           6.08          17.17         -41.58        1409.79        2158.50          58.28
          17.79         391.99       -1372.13        1880.27        2632.05         433.96
         403.51         284.92        1481.46       -1059.08        2439.14         340.68
         213.85         539.70       -1068.53        1551.19        2313.75         237.34
          33.96          10.52       -1109.37        2436.70        2178.15          71.59
         274.19         106.96        -171.90         997.31        2343.40         300.06
         168.15          28.84       -1099.70        2150.67        2302.01         243.44
          69.09         253.22        -673.65        1288.32        2612.95         436.67
          28.31         142.13       -1293.49        2306.44        2366.56         294.31
         312.91         251.97         674.91        -153.07        2463.22         357.11
          92.18         204.21        -556.75        1535.18        2275.15         207.11
         336.96         231.84        -676.71        1360.79        2297.07         232.58
         418.32         104.77        -132.03         551.51        2607.38         423.94
         276.25          11.84       -1453.83        2024.94        2690.77         459.09
          80.29          92.57         204.15         743.19        2429.77         325.57
         387.64          42.79         449.66         412.88        2257.01         188.85
          50.14          22.99       -1228.58        2262.12        2443.30         340.15
         333.65         179.99        1513.82       -1097.51        2620.02         424.04
         244.40         531.30        -558.58        1079.80        2253.04         189.78
          39.52         280.22        -120.37         996.41        2354.18         283.18
         276.60         287.22         188.77         485.47        2311.89         250.73
           8.32         481.15       -1473.17        1828.45        2705.21         464.07
         332.97          55.65        -660.07        1248.63        2572.76         411.20
          36.81          32.54        1144.84        -202.42        2538.19         392.97
         347.79          15.91        -703.32        1276.87        2612.71         430.28
         345.93         357.18         647.56        -268.77        2468.07         363.10
          69.07         105.41        -242.72         625.05        2993.14         583.24
         581.31         137.83        -348.61         773.04        2406.39         309.85
         784.36         116.49        -713.29        1108.21        2254.18         180.18
         176.12         333.33         630.64        -240.43        2650.31         438.05
          44.53          19.13        -542.13        1634.88        2393.52         306.50
         186.80         222.76       -1302.86        2201.31        2241.94         181.67
         360.38           3.68         731.99         262.08        2191.84         142.64
         108.49          87.78         646.19         505.66        2201.83         110.42
          70.45         441.61       -1392.05        2013.71        2416.25         313.84
         160.02           6.63        -992.05        2117.46        2257.89         170.46
         437.81         307.69         -35.33         344.49        2495.31         365.31
         138.02          22.97        4157.45       -3098.90        2330.42         241.27
         254.01         143.09       -1251.84        1943.94        2460.76         359.24
         293.28          89.29        -183.00        1155.03        2195.36         137.75
         209.62          19.71        2565.46       -1567.98        2323.16         270.41
         474.62         465.43       -1295.91        1445.47        2460.33         361.81
          64.92         416.55        -296.69         787.69        2577.49         408.54
         198.12         429.66        -103.57         394.24        2631.50         445.73
         389.46         238.32         629.14          53.80        2239.24         188.37
         124.14          35.74       -1449.14        2251.64        2587.57         423.08
          62.28          70.60         643.72         570.18        2203.19         150.98
          61.51         105.67       -1186.12        2057.70        2511.21         366.73
         153.57         149.12         142.59         807.88        2296.79         240.13
         469.16         193.18        -795.01         822.96        2859.67         531.82
         289.05          63.03        1401.15        -653.40        2450.12         351.08
         152.46         775.46       -1034.14        1184.38        2471.79         359.64
          25.08         142.98        1237.80        -152.77        2296.89         237.63
         536.34          65.29        -962.12        1064.91        2845.54         529.24
         260.91         417.85        -560.49        1003.42        2428.24         341.95
         119.71           7.37        -774.57        1996.17        2201.28          96.39
         283.26          65.22        -501.86        1295.36        2407.96         325.43
         405.75          18.91        -441.06        1272.73        2293.61         234.65
         266.06          92.99        1346.31        -695.39        2539.99         393.47
          14.73         145.94        -830.14        1628.03        2591.40         418.47
         203.44          76.47         437.91         454.33        2377.83         302.63
         479.57          33.85       -1394.64        2266.74        2164.45         107.65
         222.02         418.49        -276.31         510.85        2674.93         448.98
         200.35         104.40         392.09         435.03        2418.11         346.56
         291.43          19.21        -614.80        1202.36        2651.76         446.04
         125.38         293.04       -1333.39        1954.10        2510.81         382.08
         581.61         100.54         276.94         -57.11        2647.97         449.59
          46.53         265.96        -562.61        1328.46        2471.60         371.92
          48.89          88.30        -457.64         642.49        3227.95         652.31
         281.29         132.80       -1465.08        2011.19        2589.76         412.85
         168.59          72.86       -1270.24        2137.33        2441.42         333.60
          58.16         303.37       -1076.33        1193.61        3071.15         600.28
          13.86         551.47       -1096.67        1790.71        2290.59         226.18
         141.55          98.42        -899.48        1450.20        2759.26         494.73
          47.66         274.53         859.56         -91.10        2459.32         352.01
           1.08         163.74         528.26          43.22        2813.63         523.21
          26.88         334.90       -1061.84        1862.17        2387.86         296.17
         144.73         146.65         546.68         270.46        2441.44         347.57
         616.22          21.92        -437.51        1025.20        2324.15         284.32
         162.26         110.44         -13.26        1089.89        2200.62         157.98
         257.60          57.90         381.59         623.01        2229.85         161.16
         235.94         385.86       -1073.30        1408.50        2592.95         425.39
         707.89         102.80        -927.56        1416.86        2249.98         213.54
          35.72         106.08        -464.02        1304.63        2567.55         400.46
         137.11         221.26       -1159.46        1958.03        2393.03         310.23
         156.98          47.48        2219.04       -1124.28        2250.75         201.10
         113.61          82.63        1952.58        -825.23        2226.37         152.19
           4.69          67.77        -522.81        1709.34        2290.98         244.82
         287.25         132.55         138.60         676.90        2314.69         250.02
         296.73          70.75       -1032.09        1920.70        2293.87         234.25
         263.18         138.08        -672.58        1204.47        2616.80         436.14
         444.30          70.87        -983.17        1460.91        2557.06         390.01
         450.07          68.05       -1187.56        1629.13        2590.27         425.75
         528.89         269.81       -1008.77        1406.98        2353.04         270.78
          29.14         205.69         454.07         321.14        2539.91         396.13
         109.66         102.18       -1382.38        2472.81        2247.69         196.82
          86.22         197.81       -1155.04        2094.63        2326.35         255.88
          49.23         422.27         533.96        -140.34        2684.83         459.42
         121.56          44.33        -869.72        2024.82        2228.97         189.12
          91.30         534.13       -1043.84        1536.81        2431.57         333.55
         502.79          70.87        -508.47        1161.19        2323.57         264.95
          27.76          71.96        -634.43        1275.67        2808.99         509.32
          32.13         134.74        -486.72        1510.00        2359.81         286.36
         616.44         437.03        -846.68         978.41        2364.77         286.08
         329.82         116.99       -1386.79        2194.78        2295.15         241.55
         570.30         138.34        -954.26        1355.04        2440.55         344.39
         350.80         221.26          13.59         708.17        2256.12         224.21
          49.56          13.35       -1210.15        2405.19        2292.02         238.05
         183.08         339.82        -245.64         765.01        2507.69         378.84
         394.24         192.09       -1431.55        1967.99        2427.19         330.95
          61.38          38.10       -1170.01        2414.88        2205.62         149.21
           5.83         123.80       -1101.34        1871.45        2650.23         464.10
         629.33          48.95        -639.27        1189.64        2321.31         253.25
         173.22         835.16         558.27        -535.23        2518.54         376.34
         349.67         206.85        -231.18         885.31        2339.31         281.52
          36.11          34.14        -153.44         890.64        2742.52         482.23
          74.65          49.73        -774.09        1911.90        2287.78         219.69
           2.46         155.91        -902.49        1921.86        2372.21         289.41
         221.01         271.96       -1443.64        2168.83        2331.82         265.35
         126.49         228.66        -931.02        1671.55        2454.29         348.92
         398.91          55.91       -1465.20        1859.41        2700.93         472.85
          45.11         137.33        1226.33        -348.57        2489.77         378.56
          30.37         491.33        -399.45        1220.75        2206.97         154.87
         221.71          17.65         389.00         173.71        2747.86         497.51
         214.52         157.42        -599.42         890.01        2887.42         543.53
         323.51           6.21       -1127.37        1745.17        2602.43         436.44
         115.15         168.87        1360.59        -960.31        2865.66         531.06
          46.13         108.17         -57.81        1200.19        2253.30         165.51
         419.78          28.62        -558.12         593.12        3066.55         601.66
          11.71         246.97        -409.69        1415.81        2285.17         234.49
         270.27         452.93        -443.80         892.93        2377.63         298.73
         335.17          61.41        -603.81        1328.76        2428.43         331.36
         199.76          40.81       -1226.67        2263.75        2272.33         231.99
         143.67         151.00        -286.77        1173.72        2368.34         290.80
          41.43         352.41        -797.11        1641.59        2311.63         245.04
         110.79         251.60         431.15         557.84        2198.58         135.34
         110.49          63.98       -1454.45        2584.92        2245.02         169.55
         329.61         557.13       -1057.73        1333.84        2387.09         326.44
         329.17         395.71       -1217.22        1494.98        2547.32         392.45
         142.81          18.07        -790.31        1550.31        2629.07         425.91
          11.49          21.26        -992.25        2274.06        2235.41         180.10
          28.20          17.92       -1000.65        1957.87        2546.63         398.71
         182.68         255.63       -1402.73        1638.51        2875.87         543.36
          98.98         233.99       -1201.26        1667.88        2750.38         488.96
         418.75         231.63       -1397.50        1556.75        2740.32         476.73
         679.07           5.62         932.79        -330.74        2263.22         203.60
          33.44         192.35        -454.35        1276.69        2501.83         373.75
         382.53         263.39        1075.44        -621.25        2449.85         339.89
          88.58         259.69       -1092.53        2101.35        2192.87         130.79
         337.68         170.90       -1315.68        1726.27        2630.77         441.99
          35.30         539.99         180.59         -19.67        2813.75         506.94
         262.24          58.79       -1187.91        2151.83        2265.01         208.72
         151.64         123.03        -782.92        1721.09        2337.11         270.58
         393.72          44.48       -1387.56        2251.42        2247.89         198.68
         128.19         110.47        -134.43        1262.62        2183.13         153.42
         403.22         510.84        -653.92        1047.17        2242.63         194.31
         148.24         439.24          47.23         634.48        2280.78         240.65
         287.75         214.28        -766.49        1355.01        2459.43         346.71
          39.61          74.86        -704.42        1814.42        2325.49         246.62
          99.10         242.04        2265.45       -1539.07        2482.44         355.42
         124.33          58.47       -1247.72        1927.62        2687.27         456.42
         180.42           3.55        -453.82        1267.58        2552.24         401.66
         168.38          22.27        -631.78        1779.53        2211.57         157.59
          56.16         177.57        -153.40        1264.54        2205.09         144.46
         238.58          36.23       -1084.11        1967.93        2391.32         303.31
         456.91         129.82         307.68         442.45        2213.10         169.25
         246.71         333.47        -712.23        1436.46        2245.56         164.57
          86.73         221.68       -1214.70        2212.17        2244.09         171.94
         286.18          16.73        -339.38        1336.17        2250.27         187.65
         132.72         109.28       -1372.90        2174.14        2506.72         371.87
         946.67          80.23        2199.99       -1987.92        2310.99         258.29
         443.47         186.92        -899.10        1286.60        2532.07         385.07
          57.56         119.81       -1224.44        2339.48        2257.55         203.49
         220.03         423.87       -1302.73        1990.90        2217.88         170.71
         608.93         105.31        -945.22        1366.74        2414.21         307.80
          33.80           2.62       -1043.50        2016.42        2540.63         396.01
         552.57         115.21        -244.34         810.31        2316.22         254.83
          13.29         341.03        -950.31        1849.78        2296.18         230.68
         787.79          56.58       -1396.74        1907.22        2195.13         149.12
         166.55         659.25         189.80         166.53        2367.83         300.69
         211.16         359.66         859.08        -474.88        2594.94         427.89
          22.87         264.10        -585.72        1545.82        2302.90         233.67
          81.18         105.68       -1436.88        2617.16        2182.82         115.68
         266.45          37.39         430.61         421.81        2393.71         309.55
         142.19          45.82        -158.17        1113.92        2406.20         309.51
         312.26         102.73        -804.41        1042.32        2897.05         539.79
         140.84         109.26        3200.20       -2309.62        2409.29         330.77
          41.33         289.94        -481.22        1507.56        2192.35         123.72
           0.39         137.19        -707.77        1581.48        2538.66         394.07
         113.47         151.37       -1370.08        2336.15        2319.04         258.19
          44.33          49.50         295.93         759.05        2401.13         302.63
           0.34         181.52       -1436.35        2446.56        2357.89         276.65
          19.24           4.74        -927.28        1973.13        2480.13         358.49
          16.72          48.18         375.76         902.26        2207.04         137.77
         173.53           8.05       -1208.10        2322.14        2254.35         179.92
         365.99         131.81        -396.27        1146.33        2302.09         240.79
          27.41          15.25        1380.91       -1226.13        3352.52         691.96
         434.61          42.47         197.63         412.09        2463.16         364.23
          74.33          55.08       -1146.10        2332.19        2234.47         161.04
         311.89         384.18        1586.62       -1076.02        2343.28         285.20
          33.15          10.24          62.91        1040.87        2402.79         316.52
         251.98         170.74        -902.09        1595.70        2433.62         330.87
         565.95         372.01        -523.84         900.84        2235.00         172.71
         615.94          19.65       -1171.78        1598.61        2487.54         358.17
         334.34          78.45       -1413.39        2016.36        2534.20         400.29
         412.74         292.62       -1099.53        1605.54        2338.60         262.18
         189.33           3.02          69.79         937.68        2350.12         277.49
         442.44         139.00        -644.20        1311.89        2300.84         250.30
          13.65         141.83        -633.50        1514.74        2513.23         374.20
          61.96         300.42       -1223.04        2068.73        2341.90         287.01
         171.41         464.52         -60.80         489.46        2485.38         371.76
         221.68          26.26        -405.89         774.12        2933.78         554.57
         124.61         114.04        -775.32        1254.22        2832.40         527.55
         919.28          25.85       -1478.11        1857.30        2225.66         149.06
         150.99          67.24        -677.56        1310.85        2698.42         470.52
           1.20          91.37        -984.03        2162.11        2279.32         228.31
          43.68          67.88       -1349.93        2516.60        2271.74         205.56
         144.81         444.44         156.78          70.19        2733.75         478.22
         111.43          31.10        -371.18        1052.66        2725.95         469.24
         313.26         147.78         715.98          99.95        2273.00         210.62
         136.75          82.13        -428.63        1532.92        2226.78         168.09
         272.09         120.96         207.95         618.51        2330.46         252.05
         276.56         170.13       -1409.85        1559.23        2953.90         562.55
         254.58         156.26        -296.01        1069.63        2365.52         286.74
         290.74         109.15        3542.66       -3072.78        2680.20         468.25
         116.28         748.89        -554.76         934.99        2304.57         252.00
         370.23          42.13        -223.22         847.69        2513.11         383.23
         307.68          72.04        -176.43        1160.36        2186.31         130.75
        1061.26         176.06         652.41        -589.30        2249.52         210.45
          45.42         245.96         -35.40         345.29        2948.72         570.06
         267.01         146.67       -1092.43        2009.23        2219.47         160.80
         626.21           5.14         189.94         263.80        2464.88         368.79
         592.23          49.86       -1414.01        1803.41        2518.47         380.21
           9.61          11.78         127.28         787.54        2613.74         427.10
         868.34         147.68       -1391.81        1481.33        2444.44         353.14
         253.79         195.74        -919.78        1808.84        2211.35         159.43
         268.85           8.31        1660.29        -713.60        2326.11         266.36
         160.41          84.40       -1106.88        2020.55        2391.46         306.73
         189.82          81.31          73.10         874.21        2331.54         269.67
         284.04         203.76       -1171.01        1869.45        2363.70         294.70
         445.71         204.91        1793.24       -1355.43        2461.54         367.93
         267.00          30.46        -862.69        1779.89        2335.29         281.00
         428.70         218.85        -812.15        1516.91        2197.64         129.31
         265.53         112.46       -1231.96        1945.42        2458.52         337.69
         120.82         102.89       -1403.46        1940.45        2789.26         511.80
         741.57          57.84       -1046.01        1128.70        2667.86         457.46
        1022.69          87.44        -941.75        1114.29        2267.28         223.09
         390.06         407.98       -1373.32        1871.39        2253.83         203.09
          69.07         111.17       -1438.84        2143.10        2665.48         444.76
         105.10         160.07        -549.57        1353.98        2480.36         364.69
         202.94          49.71       -1252.16        2164.97        2384.52         302.50
         367.61          16.00        -682.64        1474.58        2374.41         295.77
         363.97         211.47        3359.28       -2751.70        2366.95         302.02
         210.42          47.57           4.52         982.44        2305.00         238.36
         146.73         353.06         -12.51         662.08        2400.58         329.11
          87.34        1029.86        -544.80         647.15        2330.40         279.54
         386.94          47.93        -165.36         846.91        2433.52         342.68
         183.49         371.49        -436.47         712.53        2718.93         481.60
          36.65          18.16         645.15         342.52        2507.51         379.96
         451.77         313.11        -513.56         586.14        2712.49         480.31
         284.09          15.41       -1103.87        1954.13        2400.21         317.87
         117.04          63.22        -988.22        1980.98        2376.95         296.80
