 #HCl ZPE (DMC): 1483.743446, WWW ZPE (DMC): 15602.536472
 #E_given = DMC ZPE + 3550 =21233.1103893624.
 #Dvib = Evib - ZPE
 #D0 = E_given - Erot(W) - Erot(HWW) - Evib(W) + Evib(HWW) -E_COM,E_COM=0
 
     #Erot(HCl)     #Erot(WWW)     #Dvib(HCl)     #Dvib(WWW)             D0         #Speed             #J
         482.24           7.83         551.17         290.89        2217.83         151.61              6
         428.63          22.10        -858.76        1324.13        2633.85         443.15              6
         470.67         365.75       -1164.58        1624.68        2253.45         189.35              6
         430.41         193.31         578.35         138.57        2209.31         157.85              6
         457.45         160.06        -130.95         740.67        2322.74         261.47              6
         394.60          56.16         840.16        -230.74        2489.78         368.93              6
         358.23         135.74        -808.14        1145.51        2718.64         478.77              6
         381.93         109.20        -999.73        1566.88        2491.67         363.17              6
         464.45         513.84        -943.45        1308.60        2206.50         172.68              6
         410.23         227.45        -460.90         826.56        2546.61         404.15              6
         305.05         416.90         840.96        -425.25        2412.30         323.76              6
         398.28          56.30         469.64         196.41        2429.33         327.75              6
         362.35          60.83         369.83         412.22        2344.73         278.71              6
         427.78         182.90        -745.41        1429.67        2255.05         192.57              6
         422.43         228.67        -288.52         902.65        2284.72         241.89              6
         478.52          81.54       -1429.50        1990.36        2429.03         329.68              6
         467.39          45.56        -334.15         710.95        2660.23         443.43              6
         433.73          23.77        -843.28        1435.28        2500.46         375.19              6
         440.23         104.80       -1447.10        2142.15        2309.88         242.04              6
         417.18         166.85        -682.01        1333.08        2314.88         242.71              6
         454.44          59.32       -1151.24        1925.73        2261.68         211.10              6
         401.13         297.77         310.05         265.56        2275.46         215.13              6
         423.82         197.10        -785.01        1463.21        2250.84         208.62              6
         469.99         103.83       -1160.17        1651.90        2484.42         359.54              6
         352.52          93.97        -643.40        1378.00        2368.87         299.65              6
         413.88           2.47       -1453.99        2116.22        2471.37         349.14              6
         438.62          39.97       -1167.52        1995.48        2243.39         164.92              6
         397.49          12.85         100.21         839.72        2199.70         129.28              6
         485.63         152.86       -1407.92        2058.16        2261.23         193.29              6
         465.31         129.68        -663.83        1386.94        2231.86         166.49              6
         441.08         160.72        -451.37         856.55        2542.98         410.90              6
         381.45         140.20         337.67         390.77        2299.84         280.50              6
         406.34           7.53         933.62        -584.41        2786.88         508.91              6
         493.31          49.95        1020.46        -782.75        2768.99         503.75              6
         437.51          88.91       -1053.34        1437.18        2639.71         438.46              6
         412.44         805.01         587.04        -492.30        2237.78         191.15              6
         388.40           1.08          45.94         891.74        2222.81         157.62              6
         405.42          39.02        -185.60         735.68        2555.43         391.85              6
         374.30           6.41        -502.65        1420.12        2251.78         231.68              6
         342.09          24.55        -590.20        1396.51        2377.01         301.42              6
         419.47         724.39        -498.79         550.67        2354.24         274.19              6
         416.62         404.37       -1187.68        1499.86        2416.79         329.28              6
         437.58         133.27        -213.87         830.94        2362.04         287.95              6
         400.35         167.11       -1120.52        1527.04        2575.96         412.94              6
         406.72         214.78       -1135.59        1776.01        2288.03         256.32              6
         526.50         318.33        -946.52        1193.32        2458.33         343.44              6
         445.60          50.35       -1350.43        1864.84        2539.61         383.99              6
         424.18         100.85         -41.70         613.46        2453.15         338.16              6
         394.59          55.87        -470.37        1273.67        2296.19         235.65              6
         450.19         411.14       -1286.09        1628.80        2345.91         280.85              6
         449.02         122.43       -1291.89        1790.67        2479.73         363.09              6
         492.88          19.38       -1135.12        1323.28        2849.53         530.85              6
         381.39         154.72       -1396.60        2179.27        2231.21         194.36              6
         443.90         342.92        -293.36         790.35        2266.15         219.71              6
         417.30          20.46        -439.76        1266.57        2285.40         221.15              6
         411.55         504.37        -709.76         980.51        2363.28         299.02              6
         407.75         210.29       -1300.09        1520.60        2711.40         478.51              6
         410.69         169.55       -1421.40        1972.44        2418.69         311.78              6
         457.56         105.98        -795.37        1325.17        2456.61         350.82              6
         443.80         161.62       -1353.75        1988.44        2309.84         232.81              6
         380.85         182.86        -882.27        1586.48        2282.04         255.97              6
         368.70          42.52       -1371.99        2149.66        2361.08         297.66              6
         362.84         258.49          60.55          28.80        2839.29         523.54              6
         364.19         302.79        -807.31        1416.17        2274.11         218.74              6
         467.99          59.86        -137.89         873.54        2286.45         213.84              6
         416.78          48.15        -674.35        1166.10        2593.30         434.08              6
         459.59         100.83        -848.04        1507.85        2329.75         259.34              6
         462.45         159.47        -919.70        1117.48        2730.26         483.83              6
         416.13           3.64       -1309.96        1982.32        2457.83         348.42              6
         393.87         299.82        1700.84       -1048.73        2204.18         161.61              6
         387.63         100.06       -1398.27        2259.15        2201.40         138.73              6
         438.78          65.71        -348.79        1128.83        2265.43         217.17              6
         499.88          35.93       -1265.50        1918.91        2360.74         288.79              6
         405.28         162.86        -988.92        1643.90        2326.84         259.45              6
         376.30           1.28        -105.94        1052.00        2226.32         123.12              6
         437.01         112.80        -535.97        1170.28        2365.84         295.89              6
         377.68         422.13         217.30         218.20        2314.66         268.37              6
         503.66         213.66       -1354.09        1944.41        2242.34         189.46              6
         390.51         157.16       -1389.11        1620.36        2771.04         494.68              6
         373.12         190.48        -430.54         817.35        2599.55         418.98              6
         482.32          94.10       -1263.89        1843.09        2394.34         319.81              6
         499.34         124.15          60.73         340.64        2525.11         399.87              6
         512.41         207.55         129.56         117.08        2583.36         427.56              6
         489.09         175.01       -1352.47        1728.23        2510.09         380.48              6
         416.95         177.61        -285.02         614.21        2626.22         424.77              6
         478.50          16.39       -1401.32        2114.19        2342.20         251.39              6
         423.38         104.58        -825.23         991.82        2855.43         522.27              6
         403.69          58.67        -666.12         806.07        2947.65         564.04              6
         364.55         137.79        2043.63       -1318.17        2322.17         265.76              6
         478.06          13.98        -962.92        1833.62        2187.21          87.87              6
         365.69         111.45       -1227.32        1916.94        2383.21         297.48              6
         432.11           5.64        -713.65        1640.27        2185.60          96.84              6
         449.88          79.52        -794.62        1193.60        2621.56         432.60              6
         385.36          26.01        -931.73        1882.72        2187.60          96.84              6
         429.98         546.35        -507.46         782.59        2298.50         238.79              6
         492.51          50.25        -953.55        1672.37        2288.38         224.12              6
         355.37           9.05         369.59         516.73        2299.22         261.59              6
         494.35         125.01       -1026.83        1609.32        2348.11         292.22              6
         441.05         320.81        -453.04         652.10        2589.02         423.25              6
         453.53          72.58        -601.92        1222.07        2403.68         330.88              6
         442.83         404.37        1368.70        -928.71        2262.77         207.77              6
         392.24         220.96       -1288.20        1307.13        2917.82         557.48              6
         398.03         167.81        -577.62        1257.26        2304.47         243.06              6
         362.92          28.14         142.14         737.82        2278.92         216.26              6
         339.67          62.85         173.79         721.20        2252.46         215.34              6
         402.27         118.48        -445.20        1081.41        2393.00         305.17              6
         450.25           8.12        -723.97        1585.33        2230.22         185.53              6
         564.59          92.57         -51.97         635.49        2309.28         244.83              6
         457.76         147.50       -1072.08        1558.08        2458.68         346.29              6
         374.46         232.87         -98.85         723.03        2318.45         274.38              6
         457.21         208.60       -1356.84        1967.02        2273.97         207.42              6
         436.25         224.14        -856.05        1467.83        2277.77         227.94              6
         457.95         380.63        -553.90         909.65        2355.64         280.64              6
         458.71          37.62       -1353.96        2049.98        2357.61         279.16              6
         355.63         671.15        -385.94         477.24        2431.88         329.79              6
         491.93         217.00       -1152.73        1466.77        2526.98         387.51              6
         359.36         162.91         159.90         599.30        2268.50         215.62              6
         539.79         298.64       -1095.02        1592.67        2213.88         163.92              6
         414.34         132.84       -1358.24        1527.82        2833.20         521.28              6
         371.35         187.39        -733.78        1292.32        2432.68         335.29              6
         499.50          24.81       -1472.27        2263.84        2234.09         176.22              6
         365.38         507.51         943.47        -791.76        2525.36         382.06              6
         394.10         246.74       -1195.88        1923.18        2181.80         132.28              6
         439.67         242.89        -186.94         757.95        2296.39         242.42              6
         443.65         128.44        -281.37         663.59        2595.65         421.69              6
         302.87          49.06        1348.75        -356.13        2205.42         157.63              6
         324.18          65.94        -152.31        1044.43        2267.73         211.85              6
         550.90          77.00         944.41        -907.52        2885.15         537.72              6
         337.69          71.73         900.41        -114.59        2354.72         289.73              6
         366.29         542.02        -640.12         949.76        2332.01         260.36              6
         350.22          28.94         906.10          11.19        2253.52         209.83              6
         409.40         351.05       -1256.89        1261.43        2784.95         509.12              6
         409.88          26.70        -801.64        1650.20        2264.82         203.91              6
         392.78         408.48        -540.33        1069.01        2220.02         182.75              6
         452.10         157.27       -1098.55        1741.91        2297.24         232.23              6
         436.69         373.22        -332.02         767.58        2304.49         240.28              6
         411.36          96.32         147.51         572.86        2321.91         276.87              6
         447.38         130.81        -895.95        1560.36        2307.34         243.37              6
         426.72         131.14         281.38         248.83        2461.89         342.89              6
         596.86         376.01        1010.90        -940.88        2507.05         378.92              6
         357.71         713.30        2255.20       -2155.27        2379.02         312.56              6
         522.45          25.86        1222.68        -929.85        2708.81         471.77              6
         362.35         133.90       -1314.93        2001.56        2367.07         288.35              6
         392.41         148.68       -1195.24        1723.17        2480.94         360.87              6
         511.08          25.33         175.08        -149.83        2988.31         572.84              6
         400.40         127.85        -556.98        1141.11        2437.60         345.33              6
         330.30         266.80         590.64         -44.46        2406.69         312.44              6
         432.61         139.71        -832.25        1469.06        2340.82         286.07              6
         364.97           5.53        -645.32        1417.96        2406.82         309.03              6
         378.66          44.46         658.40          53.77        2414.69         313.46              6
         421.06         181.75          65.13          88.83        2793.20         500.30              6
         509.39         269.68         133.98         344.97        2291.92         254.02              6
         428.40         139.58          39.32         466.31        2476.35         357.70              6
         447.16         326.42          40.85         505.30        2230.22         152.84              6
         372.44         328.29         258.82         216.19        2374.22         309.03              6
         410.95          33.60        -990.02        1828.83        2266.60         212.69              6
         511.28         149.22        -757.83        1426.07        2221.21         158.46              6
         434.39          22.27       -1461.46        2307.61        2247.16         186.09              6
         332.25          20.69         158.36         143.11        2895.54         548.19              6
         410.66          46.49        -954.00        1703.84        2342.94         290.55              6
         399.16         546.20       -1125.77        1198.28        2532.09         378.08              6
         379.40          21.50        -270.82        1075.57        2344.29         274.35              6
         365.77           4.21       -1155.46        2145.89        2189.54         109.68              6
         431.06          36.34        -458.14         888.81        2651.87         450.15              6
         430.38          28.25        -567.36         861.74        2796.96         512.88              6
         381.10          54.38         332.49         215.41        2566.59         406.08              6
         503.35          54.10       -1079.56        1494.37        2577.70         406.05              6
         426.79         144.49         197.68         353.48        2427.52         335.23              6
         450.09         169.84          28.26         226.00        2675.79         458.21              6
         532.40         105.44          38.84         580.32        2292.97         252.61              6
         352.63          19.09        3090.95       -2178.06        2265.35         205.35              6
         473.49          41.17       -1008.37        1579.18        2464.50         355.37              6
         359.63          62.08         667.07         241.19        2220.01         157.84              6
         568.00          98.27        1688.95       -1030.34        2225.08         165.30              6
         372.42          39.18        1031.56        -404.09        2510.89         379.17              6
         378.25          35.87       -1208.22        2132.59        2211.47         139.78              6
         433.25         138.66        1578.76        -797.33        2196.59         186.90              6
         409.71          10.62        2233.55       -1679.82        2575.90         420.31              6
         382.84         690.75        -779.97         837.63        2418.73         333.48              6
         504.21          40.36       -1129.79        1926.28        2208.89         147.67              6
         403.51         284.92        1481.46       -1059.08        2439.14         340.68              6
         312.91         251.97         674.91        -153.07        2463.22         357.11              6
         418.32         104.77        -132.03         551.51        2607.38         423.94              6
         387.64          42.79         449.66         412.88        2257.01         188.85              6
         347.79          15.91        -703.32        1276.87        2612.71         430.28              6
         360.38           3.68         731.99         262.08        2191.84         142.64              6
         437.81         307.69         -35.33         344.49        2495.31         365.31              6
         474.62         465.43       -1295.91        1445.47        2460.33         361.81              6
         389.46         238.32         629.14          53.80        2239.24         188.37              6
         469.16         193.18        -795.01         822.96        2859.67         531.82              6
         405.75          18.91        -441.06        1272.73        2293.61         234.65              6
         479.57          33.85       -1394.64        2266.74        2164.45         107.65              6
         444.30          70.87        -983.17        1460.91        2557.06         390.01              6
         450.07          68.05       -1187.56        1629.13        2590.27         425.75              6
         528.89         269.81       -1008.77        1406.98        2353.04         270.78              6
         502.79          70.87        -508.47        1161.19        2323.57         264.95              6
         350.80         221.26          13.59         708.17        2256.12         224.21              6
         394.24         192.09       -1431.55        1967.99        2427.19         330.95              6
         398.91          55.91       -1465.20        1859.41        2700.93         472.85              6
         419.78          28.62        -558.12         593.12        3066.55         601.66              6
         418.75         231.63       -1397.50        1556.75        2740.32         476.73              6
         382.53         263.39        1075.44        -621.25        2449.85         339.89              6
         393.72          44.48       -1387.56        2251.42        2247.89         198.68              6
         403.22         510.84        -653.92        1047.17        2242.63         194.31              6
         443.47         186.92        -899.10        1286.60        2532.07         385.07              6
         365.99         131.81        -396.27        1146.33        2302.09         240.79              6
         434.61          42.47         197.63         412.09        2463.16         364.23              6
         412.74         292.62       -1099.53        1605.54        2338.60         262.18              6
         442.44         139.00        -644.20        1311.89        2300.84         250.30              6
         428.70         218.85        -812.15        1516.91        2197.64         129.31              6
         390.06         407.98       -1373.32        1871.39        2253.83         203.09              6
         367.61          16.00        -682.64        1474.58        2374.41         295.77              6
         363.97         211.47        3359.28       -2751.70        2366.95         302.02              6
         451.77         313.11        -513.56         586.14        2712.49         480.31              6
